"participant_id","fsm_type","test_condition","phase","trial_order","sender","state_current","response_current","state_next","state_1","response_1","state_2","response_2","state_3","response_time","response_time_lessThan300ms","trial_id","trial_type","option_1","option_2","correctResponse","response","response_correct","option_1_p","option_2_p","duration","explanation_1_decrease","explanation_2_decrease","response_time_lessThan1000ms","response_time_tooQuick"
1,"hard","prediction","learning",2,"trial_1_seq",0,"b",3,NA,NA,0,"b",3,3198.76000000058,0,"0b3",NA,NA,NA,NA,NA,NA,NA,NA,NA,NA,NA,0,0
1,"hard","prediction","learning",3,"trial_2_seq",3,"b",2,0,"b",3,"b",2,3192.00700000276,0,"3b2",NA,NA,NA,NA,NA,NA,NA,NA,NA,NA,NA,0,0
1,"hard","prediction","learning",4,"learning_control_trial_seq",2,"b",0,3,"b",2,"b",0,1661.84800000112,0,"2b0",NA,NA,NA,NA,NA,NA,NA,NA,NA,NA,NA,0,0
1,"hard","prediction","learning",5,"learning_control_trial_seq",0,"b",3,2,"b",0,"b",3,4840.27700000172,0,"0b3",NA,NA,NA,NA,NA,NA,NA,NA,NA,NA,NA,0,0
1,"hard","prediction","learning",6,"learning_control_trial_seq",3,"b",3,0,"b",3,"b",3,5610.9770000032,0,"3b3",NA,NA,NA,NA,NA,NA,NA,NA,NA,NA,NA,0,0
1,"hard","prediction","learning",7,"learning_control_trial_seq",3,"a",2,3,"b",3,"a",2,1629.774000003,0,"3a2",NA,NA,NA,NA,NA,NA,NA,NA,NA,NA,NA,0,0
1,"hard","prediction","learning",8,"learning_control_trial_seq",2,"a",2,3,"a",2,"a",2,4587.91900000127,0,"2a2",NA,NA,NA,NA,NA,NA,NA,NA,NA,NA,NA,0,0
1,"hard","prediction","learning",9,"learning_control_trial_seq",2,"a",2,2,"a",2,"a",2,3128.80800000025,0,"2a2",NA,NA,NA,NA,NA,NA,NA,NA,NA,NA,NA,0,0
1,"hard","prediction","learning",10,"learning_control_trial_seq",2,"a",2,2,"a",2,"a",2,1242.2690000009,0,"2a2",NA,NA,NA,NA,NA,NA,NA,NA,NA,NA,NA,0,0
1,"hard","prediction","learning",11,"learning_control_trial_seq",2,"b",1,2,"a",2,"b",1,827.178000000597,0,"2b1",NA,NA,NA,NA,NA,NA,NA,NA,NA,NA,NA,1,0
1,"hard","prediction","learning",12,"learning_control_trial_seq",1,"b",3,2,"b",1,"b",3,2593.30000000107,0,"1b3",NA,NA,NA,NA,NA,NA,NA,NA,NA,NA,NA,0,0
1,"hard","prediction","learning",13,"learning_control_trial_seq",3,"b",2,1,"b",3,"b",2,4681.3950000015,0,"3b2",NA,NA,NA,NA,NA,NA,NA,NA,NA,NA,NA,0,0
1,"hard","prediction","learning",14,"learning_control_trial_seq",2,"b",1,3,"b",2,"b",1,4616.01600000195,0,"2b1",NA,NA,NA,NA,NA,NA,NA,NA,NA,NA,NA,0,0
1,"hard","prediction","learning",15,"learning_control_trial_seq",1,"b",3,2,"b",1,"b",3,1594.99800000066,0,"1b3",NA,NA,NA,NA,NA,NA,NA,NA,NA,NA,NA,0,0
1,"hard","prediction","learning",16,"learning_control_trial_seq",3,"a",0,1,"b",3,"a",0,1855.86200000354,0,"3a0",NA,NA,NA,NA,NA,NA,NA,NA,NA,NA,NA,0,0
1,"hard","prediction","learning",17,"learning_control_trial_seq",0,"a",3,3,"a",0,"a",3,1995.96900000185,0,"0a3",NA,NA,NA,NA,NA,NA,NA,NA,NA,NA,NA,0,0
1,"hard","prediction","learning",18,"learning_control_trial_seq",3,"b",2,0,"a",3,"b",2,1900.59300000139,0,"3b2",NA,NA,NA,NA,NA,NA,NA,NA,NA,NA,NA,0,0
1,"hard","prediction","learning",19,"learning_control_trial_seq",2,"a",2,3,"b",2,"a",2,1586.68700000326,0,"2a2",NA,NA,NA,NA,NA,NA,NA,NA,NA,NA,NA,0,0
1,"hard","prediction","learning",20,"learning_control_trial_seq",2,"b",0,2,"a",2,"b",0,1428.40600000299,0,"2b0",NA,NA,NA,NA,NA,NA,NA,NA,NA,NA,NA,0,0
1,"hard","prediction","learning",21,"learning_control_trial_seq",0,"a",3,2,"b",0,"a",3,2667.5140000004,0,"0a3",NA,NA,NA,NA,NA,NA,NA,NA,NA,NA,NA,0,0
1,"hard","prediction","learning",22,"learning_control_trial_seq",3,"b",3,0,"a",3,"b",3,1418.0080000023,0,"3b3",NA,NA,NA,NA,NA,NA,NA,NA,NA,NA,NA,0,0
1,"hard","prediction","learning",23,"learning_control_trial_seq",3,"a",0,3,"b",3,"a",0,1387.89800000354,0,"3a0",NA,NA,NA,NA,NA,NA,NA,NA,NA,NA,NA,0,0
1,"hard","prediction","learning",24,"learning_control_trial_seq",0,"a",3,3,"a",0,"a",3,2406.58800000194,0,"0a3",NA,NA,NA,NA,NA,NA,NA,NA,NA,NA,NA,0,0
1,"hard","prediction","learning",25,"learning_control_trial_seq",3,"b",3,0,"a",3,"b",3,3030.24700000082,0,"3b3",NA,NA,NA,NA,NA,NA,NA,NA,NA,NA,NA,0,0
1,"hard","prediction","learning",26,"learning_control_trial_seq",3,"a",2,3,"b",3,"a",2,1808.56600000005,0,"3a2",NA,NA,NA,NA,NA,NA,NA,NA,NA,NA,NA,0,0
1,"hard","prediction","learning",27,"learning_control_trial_seq",2,"b",1,3,"a",2,"b",1,1587.19100000313,0,"2b1",NA,NA,NA,NA,NA,NA,NA,NA,NA,NA,NA,0,0
1,"hard","prediction","learning",28,"learning_control_trial_seq",1,"b",1,2,"b",1,"b",1,2031.30700000311,0,"1b1",NA,NA,NA,NA,NA,NA,NA,NA,NA,NA,NA,0,0
1,"hard","prediction","learning",29,"learning_control_trial_seq",1,"b",1,1,"b",1,"b",1,1367.58400000326,0,"1b1",NA,NA,NA,NA,NA,NA,NA,NA,NA,NA,NA,0,0
1,"hard","prediction","learning",30,"learning_control_trial_seq",1,"b",1,1,"b",1,"b",1,754.969000002719,0,"1b1",NA,NA,NA,NA,NA,NA,NA,NA,NA,NA,NA,1,0
1,"hard","prediction","learning",31,"learning_control_trial_seq",1,"b",3,1,"b",1,"b",3,1178.93700000268,0,"1b3",NA,NA,NA,NA,NA,NA,NA,NA,NA,NA,NA,0,0
1,"hard","prediction","learning",32,"learning_control_trial_seq",3,"a",2,1,"b",3,"a",2,1461.43000000154,0,"3a2",NA,NA,NA,NA,NA,NA,NA,NA,NA,NA,NA,0,0
1,"hard","prediction","learning",33,"learning_control_trial_seq",2,"b",1,3,"a",2,"b",1,1092.55900000245,0,"2b1",NA,NA,NA,NA,NA,NA,NA,NA,NA,NA,NA,0,0
1,"hard","prediction","learning",34,"learning_control_trial_seq",1,"b",1,2,"b",1,"b",1,1126.59700000277,0,"1b1",NA,NA,NA,NA,NA,NA,NA,NA,NA,NA,NA,0,0
1,"hard","prediction","learning",35,"learning_control_trial_seq",1,"a",0,1,"b",1,"a",0,633.768000001699,0,"1a0",NA,NA,NA,NA,NA,NA,NA,NA,NA,NA,NA,1,0
1,"hard","prediction","learning",36,"learning_control_trial_seq",0,"a",3,1,"a",0,"a",3,1166.84900000039,0,"0a3",NA,NA,NA,NA,NA,NA,NA,NA,NA,NA,NA,0,0
1,"hard","prediction","learning",37,"learning_control_trial_seq",3,"a",2,0,"a",3,"a",2,1167.28200000257,0,"3a2",NA,NA,NA,NA,NA,NA,NA,NA,NA,NA,NA,0,0
1,"hard","prediction","learning",38,"learning_control_trial_seq",2,"a",2,3,"a",2,"a",2,1620.95100000169,0,"2a2",NA,NA,NA,NA,NA,NA,NA,NA,NA,NA,NA,0,0
1,"hard","prediction","learning",39,"learning_control_trial_seq",2,"a",2,2,"a",2,"a",2,1105.69800000271,0,"2a2",NA,NA,NA,NA,NA,NA,NA,NA,NA,NA,NA,0,0
1,"hard","prediction","learning",40,"learning_control_trial_seq",2,"b",0,2,"a",2,"b",0,3545.6500000016,0,"2b0",NA,NA,NA,NA,NA,NA,NA,NA,NA,NA,NA,0,0
1,"hard","prediction","learning",41,"learning_control_trial_seq",0,"b",3,2,"b",0,"b",3,838.481000003172,0,"0b3",NA,NA,NA,NA,NA,NA,NA,NA,NA,NA,NA,1,0
1,"hard","prediction","learning",42,"learning_control_trial_seq",3,"b",2,0,"b",3,"b",2,860.669000003079,0,"3b2",NA,NA,NA,NA,NA,NA,NA,NA,NA,NA,NA,1,0
1,"hard","prediction","learning",43,"learning_control_trial_seq",2,"b",1,3,"b",2,"b",1,820.811000000976,0,"2b1",NA,NA,NA,NA,NA,NA,NA,NA,NA,NA,NA,1,0
1,"hard","prediction","learning",44,"learning_control_trial_seq",1,"a",1,2,"b",1,"a",1,3424.34600000246,0,"1a1",NA,NA,NA,NA,NA,NA,NA,NA,NA,NA,NA,0,0
1,"hard","prediction","learning",45,"learning_control_trial_seq",1,"a",0,1,"a",1,"a",0,931.329000000434,0,"1a0",NA,NA,NA,NA,NA,NA,NA,NA,NA,NA,NA,1,0
1,"hard","prediction","test",46,NA,NA,NA,NA,1,"a",NA,"a",NA,2858.88900000142,0,"hard_p_hid_1aa32","hidden","3","2","3","3",TRUE,0.4,0,NA,NA,NA,0,0
1,"hard","prediction","test",47,NA,NA,NA,NA,3,"a",NA,"b",NA,1653.78000000044,0,"hard_p_hid_3ab23","hidden","2","3","3","3",TRUE,0,0.4,NA,NA,NA,0,0
1,"hard","prediction","test",48,NA,NA,NA,NA,1,"b",NA,"a",NA,3381.16000000108,0,"hard_p_hid_1ba30","hidden","3","0","0","0",TRUE,0,0.4,NA,NA,NA,0,0
1,"hard","prediction","test",49,NA,NA,NA,NA,0,"a",3,"b",NA,2567.86900000036,0,"hard_p_vis_0a3b21","visible","2","1","2","2",TRUE,0.6,0,NA,NA,NA,0,0
1,"hard","prediction","test",50,NA,NA,NA,NA,3,"b",2,"a",NA,3550.60900000355,0,"hard_p_vis_3b2a12","visible","1","2","2","2",TRUE,0,1,NA,NA,NA,0,0
1,"hard","prediction","test",51,NA,NA,NA,NA,3,"b",NA,"b",NA,5081.40000000357,0,"hard_p_hid_3bb13","hidden","1","3","1","1",TRUE,0.36,0.16,NA,NA,NA,0,0
1,"hard","prediction","test",52,NA,NA,NA,NA,2,"a",NA,"a",NA,2807.23600000294,0,"hard_p_hid_2aa23","hidden","2","3","2","2",TRUE,1,0,NA,NA,NA,0,0
1,"hard","prediction","test",53,NA,NA,NA,NA,2,"b",1,"a",NA,5541.24200000253,0,"hard_p_vis_2b1a31","visible","3","1","1","1",TRUE,0,0.6,NA,NA,NA,0,0
1,"hard","prediction","test",54,NA,NA,NA,NA,0,"a",3,"a",NA,5311.59500000323,0,"hard_p_vis_0a3a30","visible","3","0","0","3",FALSE,0,0.4,NA,NA,NA,0,0
1,"hard","prediction","test",55,NA,NA,NA,NA,0,"a",NA,"a",NA,7153.38000000297,0,"hard_p_hid_0aa10","hidden","1","0","0","0",TRUE,0,0.4,NA,NA,NA,0,0
1,"hard","prediction","test",56,NA,NA,NA,NA,3,"a",0,"b",NA,7925.30600000051,0,"hard_p_vis_3a0b30","visible","3","0","3","3",TRUE,1,0,NA,NA,NA,0,0
1,"hard","prediction","test",57,NA,NA,NA,NA,3,"a",NA,"a",NA,3661.45400000189,0,"hard_p_hid_3aa03","hidden","0","3","3","0",FALSE,0,0.4,NA,NA,NA,0,0
1,"hard","prediction","test",58,NA,NA,NA,NA,0,"b",3,"a",NA,1816.61600000237,0,"hard_p_vis_0b3a21","visible","2","1","2","2",TRUE,0.6,0,NA,NA,NA,0,0
1,"hard","prediction","test",59,NA,NA,NA,NA,2,"a",NA,"b",NA,3638.86600000237,0,"hard_p_hid_2ab12","hidden","1","2","1","1",TRUE,0.6,0,NA,NA,NA,0,0
1,"hard","prediction","test",60,NA,NA,NA,NA,1,"b",3,"b",NA,3577.94700000202,0,"hard_p_vis_1b3b30","visible","3","0","3","3",TRUE,0.4,0,NA,NA,NA,0,0
1,"hard","prediction","test",61,NA,NA,NA,NA,2,"b",NA,"b",NA,3205.22800000134,0,"hard_p_hid_2bb13","hidden","1","3","3","3",TRUE,0.36,0.64,NA,NA,NA,0,0
1,"hard","prediction","test",62,NA,NA,NA,NA,2,"b",1,"b",NA,1303.24500000197,0,"hard_p_vis_2b1b10","visible","1","0","1","1",TRUE,0.6,0,NA,NA,NA,0,0
1,"hard","prediction","test",63,NA,NA,NA,NA,2,"a",2,"b",NA,3746.37000000244,0,"hard_p_vis_2a2b03","visible","0","3","0","3",FALSE,0.4,0,NA,NA,NA,0,0
1,"hard","prediction","test",64,NA,NA,NA,NA,1,"a",0,"a",NA,3139.08000000054,0,"hard_p_vis_1a0a30","visible","3","0","3","3",TRUE,1,0,NA,NA,NA,0,0
1,"hard","prediction","test",65,NA,NA,NA,NA,1,"b",NA,"a",NA,4353.48100000038,0,"hard_p_hid_1ba32","hidden","3","2","2","2",TRUE,0,0.24,NA,NA,NA,0,0
2,"hard","explanation","learning",2,"trial_1_seq",3,"b",2,NA,NA,3,"b",2,4178.28100002384,0,"3b2",NA,NA,NA,NA,NA,NA,NA,NA,NA,NA,NA,0,0
2,"hard","explanation","learning",3,"trial_2_seq",2,"b",1,3,"b",2,"b",1,2917.11400001192,0,"2b1",NA,NA,NA,NA,NA,NA,NA,NA,NA,NA,NA,0,0
2,"hard","explanation","learning",4,"learning_control_trial_seq",1,"a",1,2,"b",1,"a",1,1811.46200001192,0,"1a1",NA,NA,NA,NA,NA,NA,NA,NA,NA,NA,NA,0,0
2,"hard","explanation","learning",5,"learning_control_trial_seq",1,"a",1,1,"a",1,"a",1,2626.44500002384,0,"1a1",NA,NA,NA,NA,NA,NA,NA,NA,NA,NA,NA,0,0
2,"hard","explanation","learning",6,"learning_control_trial_seq",1,"b",1,1,"a",1,"b",1,2136.36500001192,0,"1b1",NA,NA,NA,NA,NA,NA,NA,NA,NA,NA,NA,0,0
2,"hard","explanation","learning",7,"learning_control_trial_seq",1,"a",1,1,"b",1,"a",1,1352.40499997616,0,"1a1",NA,NA,NA,NA,NA,NA,NA,NA,NA,NA,NA,0,0
2,"hard","explanation","learning",8,"learning_control_trial_seq",1,"a",0,1,"a",1,"a",0,1283.22300002385,0,"1a0",NA,NA,NA,NA,NA,NA,NA,NA,NA,NA,NA,0,0
2,"hard","explanation","learning",9,"learning_control_trial_seq",0,"a",3,1,"a",0,"a",3,1520.77800002384,0,"0a3",NA,NA,NA,NA,NA,NA,NA,NA,NA,NA,NA,0,0
2,"hard","explanation","learning",10,"learning_control_trial_seq",3,"a",2,0,"a",3,"a",2,1180.15600002384,0,"3a2",NA,NA,NA,NA,NA,NA,NA,NA,NA,NA,NA,0,0
2,"hard","explanation","learning",11,"learning_control_trial_seq",2,"a",2,3,"a",2,"a",2,2718.68800002385,0,"2a2",NA,NA,NA,NA,NA,NA,NA,NA,NA,NA,NA,0,0
2,"hard","explanation","learning",12,"learning_control_trial_seq",2,"b",1,2,"a",2,"b",1,1363.03800002384,0,"2b1",NA,NA,NA,NA,NA,NA,NA,NA,NA,NA,NA,0,0
2,"hard","explanation","learning",13,"learning_control_trial_seq",1,"b",1,2,"b",1,"b",1,950.581999988077,0,"1b1",NA,NA,NA,NA,NA,NA,NA,NA,NA,NA,NA,1,0
2,"hard","explanation","learning",14,"learning_control_trial_seq",1,"b",1,1,"b",1,"b",1,3665.21099997616,0,"1b1",NA,NA,NA,NA,NA,NA,NA,NA,NA,NA,NA,0,0
2,"hard","explanation","learning",15,"learning_control_trial_seq",1,"b",3,1,"b",1,"b",3,1214.14299997616,0,"1b3",NA,NA,NA,NA,NA,NA,NA,NA,NA,NA,NA,0,0
2,"hard","explanation","learning",16,"learning_control_trial_seq",3,"b",2,1,"b",3,"b",2,1064.753,0,"3b2",NA,NA,NA,NA,NA,NA,NA,NA,NA,NA,NA,0,0
2,"hard","explanation","learning",17,"learning_control_trial_seq",2,"b",1,3,"b",2,"b",1,1141.65599998808,0,"2b1",NA,NA,NA,NA,NA,NA,NA,NA,NA,NA,NA,0,0
2,"hard","explanation","learning",18,"learning_control_trial_seq",1,"a",0,2,"b",1,"a",0,1615.18000002383,0,"1a0",NA,NA,NA,NA,NA,NA,NA,NA,NA,NA,NA,0,0
2,"hard","explanation","learning",19,"learning_control_trial_seq",0,"b",3,1,"a",0,"b",3,713.957999976148,0,"0b3",NA,NA,NA,NA,NA,NA,NA,NA,NA,NA,NA,1,0
2,"hard","explanation","learning",20,"learning_control_trial_seq",3,"a",0,0,"b",3,"a",0,746.187999976159,0,"3a0",NA,NA,NA,NA,NA,NA,NA,NA,NA,NA,NA,1,0
2,"hard","explanation","learning",21,"learning_control_trial_seq",0,"b",3,3,"a",0,"b",3,1486.99600000001,0,"0b3",NA,NA,NA,NA,NA,NA,NA,NA,NA,NA,NA,0,0
2,"hard","explanation","learning",22,"learning_control_trial_seq",3,"a",2,0,"b",3,"a",2,1163.62199997617,0,"3a2",NA,NA,NA,NA,NA,NA,NA,NA,NA,NA,NA,0,0
2,"hard","explanation","learning",23,"learning_control_trial_seq",2,"b",0,3,"a",2,"b",0,1346.75399999999,0,"2b0",NA,NA,NA,NA,NA,NA,NA,NA,NA,NA,NA,0,0
2,"hard","explanation","learning",24,"learning_control_trial_seq",0,"a",3,2,"b",0,"a",3,2281.69000002384,0,"0a3",NA,NA,NA,NA,NA,NA,NA,NA,NA,NA,NA,0,0
2,"hard","explanation","learning",25,"learning_control_trial_seq",3,"b",3,0,"a",3,"b",3,753.396000011911,0,"3b3",NA,NA,NA,NA,NA,NA,NA,NA,NA,NA,NA,1,0
2,"hard","explanation","learning",26,"learning_control_trial_seq",3,"a",0,3,"b",3,"a",0,1929.70399997616,0,"3a0",NA,NA,NA,NA,NA,NA,NA,NA,NA,NA,NA,0,0
2,"hard","explanation","learning",27,"learning_control_trial_seq",0,"b",3,3,"a",0,"b",3,950.531999988074,0,"0b3",NA,NA,NA,NA,NA,NA,NA,NA,NA,NA,NA,1,0
2,"hard","explanation","learning",28,"learning_control_trial_seq",3,"b",2,0,"b",3,"b",2,1245.092,0,"3b2",NA,NA,NA,NA,NA,NA,NA,NA,NA,NA,NA,0,0
2,"hard","explanation","learning",29,"learning_control_trial_seq",2,"a",2,3,"b",2,"a",2,477.279999988066,0,"2a2",NA,NA,NA,NA,NA,NA,NA,NA,NA,NA,NA,1,0
2,"hard","explanation","learning",30,"learning_control_trial_seq",2,"b",0,2,"a",2,"b",0,1056.79899997616,0,"2b0",NA,NA,NA,NA,NA,NA,NA,NA,NA,NA,NA,0,0
2,"hard","explanation","learning",31,"learning_control_trial_seq",0,"a",3,2,"b",0,"a",3,662.000999988086,0,"0a3",NA,NA,NA,NA,NA,NA,NA,NA,NA,NA,NA,1,0
2,"hard","explanation","learning",32,"learning_control_trial_seq",3,"b",3,0,"a",3,"b",3,1671.37899999999,0,"3b3",NA,NA,NA,NA,NA,NA,NA,NA,NA,NA,NA,0,0
2,"hard","explanation","learning",33,"learning_control_trial_seq",3,"b",2,3,"b",3,"b",2,990.818999999989,0,"3b2",NA,NA,NA,NA,NA,NA,NA,NA,NA,NA,NA,1,0
2,"hard","explanation","learning",34,"learning_control_trial_seq",2,"a",2,3,"b",2,"a",2,561.990999976144,0,"2a2",NA,NA,NA,NA,NA,NA,NA,NA,NA,NA,NA,1,0
2,"hard","explanation","learning",35,"learning_control_trial_seq",2,"b",1,2,"a",2,"b",1,2172.46099997615,0,"2b1",NA,NA,NA,NA,NA,NA,NA,NA,NA,NA,NA,0,0
2,"hard","explanation","learning",36,"learning_control_trial_seq",1,"a",0,2,"b",1,"a",0,838.953000011912,0,"1a0",NA,NA,NA,NA,NA,NA,NA,NA,NA,NA,NA,1,0
2,"hard","explanation","learning",37,"learning_control_trial_seq",0,"a",3,1,"a",0,"a",3,849.748000011925,0,"0a3",NA,NA,NA,NA,NA,NA,NA,NA,NA,NA,NA,1,0
2,"hard","explanation","learning",38,"learning_control_trial_seq",3,"b",3,0,"a",3,"b",3,683.785999999993,0,"3b3",NA,NA,NA,NA,NA,NA,NA,NA,NA,NA,NA,1,0
2,"hard","explanation","learning",39,"learning_control_trial_seq",3,"a",2,3,"b",3,"a",2,672.58999997616,0,"3a2",NA,NA,NA,NA,NA,NA,NA,NA,NA,NA,NA,1,0
2,"hard","explanation","learning",40,"learning_control_trial_seq",2,"b",1,3,"a",2,"b",1,544.167999976169,0,"2b1",NA,NA,NA,NA,NA,NA,NA,NA,NA,NA,NA,1,0
2,"hard","explanation","learning",41,"learning_control_trial_seq",1,"a",1,2,"b",1,"a",1,557.838000023854,0,"1a1",NA,NA,NA,NA,NA,NA,NA,NA,NA,NA,NA,1,0
2,"hard","explanation","learning",42,"learning_control_trial_seq",1,"b",3,1,"a",1,"b",3,759.259999976144,0,"1b3",NA,NA,NA,NA,NA,NA,NA,NA,NA,NA,NA,1,0
2,"hard","explanation","learning",43,"learning_control_trial_seq",3,"a",2,1,"b",3,"a",2,1088.891,0,"3a2",NA,NA,NA,NA,NA,NA,NA,NA,NA,NA,NA,0,0
2,"hard","explanation","learning",44,"learning_control_trial_seq",2,"b",0,3,"a",2,"b",0,611.644999988086,0,"2b0",NA,NA,NA,NA,NA,NA,NA,NA,NA,NA,NA,1,0
2,"hard","explanation","learning",45,"learning_control_trial_seq",0,"b",3,2,"b",0,"b",3,1082.91899998809,0,"0b3",NA,NA,NA,NA,NA,NA,NA,NA,NA,NA,NA,0,0
2,"hard","explanation","test",46,NA,NA,NA,NA,1,"b",NA,"b",2,4664.36699998807,0,"hard_e_hid_1bb2","hidden",NA,NA,"1","1",TRUE,NA,NA,NA,0.24,0,0,0
2,"hard","explanation","test",47,NA,NA,NA,NA,3,"a",NA,"a",3,1950.64700001193,0,"hard_e_hid_3aa3","hidden",NA,NA,"1","1",TRUE,NA,NA,NA,0.4,0,0,0
2,"hard","explanation","test",48,NA,NA,NA,NA,3,"b",2,"b",0,1983.45299998808,0,"hard_e_vis_3b2b0","visible",NA,NA,"2","2",TRUE,NA,NA,NA,0,0.24,0,0
2,"hard","explanation","test",49,NA,NA,NA,NA,1,"b",3,"a",2,1856.41200001194,0,"hard_e_vis_1b3a2","visible",NA,NA,"1","1",TRUE,NA,NA,NA,0.24,0,0,0
2,"hard","explanation","test",50,NA,NA,NA,NA,2,"a",NA,"b",1,5087.48800002382,0,"hard_e_hid_2ab1","hidden",NA,NA,"2","2",TRUE,NA,NA,NA,0.24,0.6,0,0
2,"hard","explanation","test",51,NA,NA,NA,NA,1,"a",NA,"a",0,3437.70700002386,0,"hard_e_hid_1aa0","hidden",NA,NA,"2","1",FALSE,NA,NA,NA,-0.16,0.24,0,0
2,"hard","explanation","test",52,NA,NA,NA,NA,0,"a",3,"a",0,403.527000000002,0,"hard_e_vis_0a3a0","visible",NA,NA,"2","1",FALSE,NA,NA,NA,0,0.4,1,1
2,"hard","explanation","test",53,NA,NA,NA,NA,3,"b",NA,"a",2,923.213000011921,0,"hard_e_hid_3ba2","hidden",NA,NA,"2","1",FALSE,NA,NA,NA,0.24,0.6,1,1
2,"hard","explanation","test",54,NA,NA,NA,NA,3,"b",NA,"b",3,415.006999976176,0,"hard_e_hid_3bb3","hidden",NA,NA,"2","2",TRUE,NA,NA,NA,-0.24,0.16,1,1
2,"hard","explanation","test",55,NA,NA,NA,NA,2,"b",1,"b",1,1209.1929999881,0,"hard_e_vis_2b1b1","visible",NA,NA,"1","1",TRUE,NA,NA,NA,0.36,0,0,0
2,"hard","explanation","test",56,NA,NA,NA,NA,2,"b",NA,"a",1,3349.72899999999,0,"hard_e_hid_2ba1","hidden",NA,NA,"1","2",FALSE,NA,NA,NA,0.36,0,0,0
2,"hard","explanation","test",57,NA,NA,NA,NA,3,"b",2,"a",2,729.27600002382,0,"hard_e_vis_3b2a2","visible",NA,NA,"2","1",FALSE,NA,NA,NA,0,0.6,1,1
2,"hard","explanation","test",58,NA,NA,NA,NA,1,"a",0,"a",3,337.831999988062,0,"hard_e_vis_1a0a3","visible",NA,NA,"1","2",FALSE,NA,NA,NA,0.4,0,1,1
2,"hard","explanation","test",59,NA,NA,NA,NA,3,"a",2,"b",1,1336.7899999881,0,"hard_e_vis_3a2b1","visible",NA,NA,"2","1",FALSE,NA,NA,NA,0,0.36,0,0
2,"hard","explanation","test",60,NA,NA,NA,NA,2,"b",1,"a",1,664.940999976185,0,"hard_e_vis_2b1a1","visible",NA,NA,"1","2",FALSE,NA,NA,NA,0.36,0,1,1
2,"hard","explanation","test",61,NA,NA,NA,NA,2,"b",NA,"b",3,2339.81900001189,0,"hard_e_hid_2bb3","hidden",NA,NA,"1","2",FALSE,NA,NA,NA,0.64,0.24,0,0
2,"hard","explanation","test",62,NA,NA,NA,NA,0,"a",NA,"a",0,1647.53499999997,0,"hard_e_hid_0aa0","hidden",NA,NA,"2","2",TRUE,NA,NA,NA,0,0.4,0,0
2,"hard","explanation","test",63,NA,NA,NA,NA,3,"a",0,"b",3,1148.42099999997,0,"hard_e_vis_3a0b3","visible",NA,NA,"1","1",TRUE,NA,NA,NA,0.4,0,0,0
2,"hard","explanation","test",64,NA,NA,NA,NA,1,"b",NA,"a",2,1157.74300002382,0,"hard_e_hid_1ba2","hidden",NA,NA,"1","2",FALSE,NA,NA,NA,0.24,0,0,0
2,"hard","explanation","test",65,NA,NA,NA,NA,0,"b",3,"b",3,328.175000023853,0,"hard_e_vis_0b3b3","visible",NA,NA,"2","1",FALSE,NA,NA,NA,0,0.4,1,1
3,"hard","control","learning",2,"trial_1_seq",3,"b",2,NA,NA,3,"b",2,5774.80599998808,0,"3b2",NA,NA,NA,NA,NA,NA,NA,NA,NA,NA,NA,0,0
3,"hard","control","learning",3,"trial_2_seq",2,"b",0,3,"b",2,"b",0,2982.33600000001,0,"2b0",NA,NA,NA,NA,NA,NA,NA,NA,NA,NA,NA,0,0
3,"hard","control","learning",4,"learning_control_trial_seq",0,"b",3,2,"b",0,"b",3,4619.65799999403,0,"0b3",NA,NA,NA,NA,NA,NA,NA,NA,NA,NA,NA,0,0
3,"hard","control","learning",5,"learning_control_trial_seq",3,"a",2,0,"b",3,"a",2,4187.56599999403,0,"3a2",NA,NA,NA,NA,NA,NA,NA,NA,NA,NA,NA,0,0
3,"hard","control","learning",6,"learning_control_trial_seq",2,"a",2,3,"a",2,"a",2,1487.42899999404,0,"2a2",NA,NA,NA,NA,NA,NA,NA,NA,NA,NA,NA,0,0
3,"hard","control","learning",7,"learning_control_trial_seq",2,"a",2,2,"a",2,"a",2,997.242999991053,0,"2a2",NA,NA,NA,NA,NA,NA,NA,NA,NA,NA,NA,1,0
3,"hard","control","learning",8,"learning_control_trial_seq",2,"a",2,2,"a",2,"a",2,1203.84199999701,0,"2a2",NA,NA,NA,NA,NA,NA,NA,NA,NA,NA,NA,0,0
3,"hard","control","learning",9,"learning_control_trial_seq",2,"b",0,2,"a",2,"b",0,641.716999991069,0,"2b0",NA,NA,NA,NA,NA,NA,NA,NA,NA,NA,NA,1,0
3,"hard","control","learning",10,"learning_control_trial_seq",0,"b",3,2,"b",0,"b",3,686.872999991057,0,"0b3",NA,NA,NA,NA,NA,NA,NA,NA,NA,NA,NA,1,0
3,"hard","control","learning",11,"learning_control_trial_seq",3,"b",3,0,"b",3,"b",3,547.665999997029,0,"3b3",NA,NA,NA,NA,NA,NA,NA,NA,NA,NA,NA,1,0
3,"hard","control","learning",12,"control_further_screen",3,"b",2,3,"b",3,"b",2,513.728000000003,0,"3b2",NA,NA,NA,NA,NA,NA,NA,NA,NA,NA,NA,1,0
3,"hard","control","learning",13,"learning_control_trial_seq",1,"a",0,2,"b",1,"a",0,3404.59299999702,0,"1a0",NA,NA,NA,NA,NA,NA,NA,NA,NA,NA,NA,0,0
3,"hard","control","learning",14,"learning_control_trial_seq",0,"a",3,1,"a",0,"a",3,752.404999999999,0,"0a3",NA,NA,NA,NA,NA,NA,NA,NA,NA,NA,NA,1,0
3,"hard","control","learning",15,"learning_control_trial_seq",3,"a",2,0,"a",3,"a",2,846.950999988068,0,"3a2",NA,NA,NA,NA,NA,NA,NA,NA,NA,NA,NA,1,0
3,"hard","control","learning",16,"learning_control_trial_seq",2,"a",2,3,"a",2,"a",2,962.081000000006,0,"2a2",NA,NA,NA,NA,NA,NA,NA,NA,NA,NA,NA,1,0
3,"hard","control","learning",17,"control_further_screen",2,"b",1,2,"a",2,"b",1,1715.77099999107,0,"2b1",NA,NA,NA,NA,NA,NA,NA,NA,NA,NA,NA,0,0
3,"hard","control","learning",18,"learning_control_trial_seq",0,"a",3,1,"a",0,"a",3,1979.78599999702,0,"0a3",NA,NA,NA,NA,NA,NA,NA,NA,NA,NA,NA,0,0
3,"hard","control","learning",19,"learning_control_trial_seq",3,"a",2,0,"a",3,"a",2,546.19399999702,0,"3a2",NA,NA,NA,NA,NA,NA,NA,NA,NA,NA,NA,1,0
3,"hard","control","learning",20,"learning_control_trial_seq",2,"a",2,3,"a",2,"a",2,11568.046,0,"2a2",NA,NA,NA,NA,NA,NA,NA,NA,NA,NA,NA,0,0
3,"hard","control","learning",21,"learning_control_trial_seq",2,"a",2,2,"a",2,"a",2,1121.46199999403,0,"2a2",NA,NA,NA,NA,NA,NA,NA,NA,NA,NA,NA,0,0
3,"hard","control","learning",22,"control_further_screen",2,"a",2,2,"a",2,"a",2,630.701999988087,0,"2a2",NA,NA,NA,NA,NA,NA,NA,NA,NA,NA,NA,1,0
3,"hard","control","learning",23,"learning_control_trial_seq",1,"a",1,2,"b",1,"a",1,28659.525999991,0,"1a1",NA,NA,NA,NA,NA,NA,NA,NA,NA,NA,NA,0,0
3,"hard","control","learning",24,"learning_control_trial_seq",1,"a",1,1,"a",1,"a",1,1080.489,0,"1a1",NA,NA,NA,NA,NA,NA,NA,NA,NA,NA,NA,0,0
3,"hard","control","learning",25,"learning_control_trial_seq",1,"a",1,1,"a",1,"a",1,259.777999997023,1,"1a1",NA,NA,NA,NA,NA,NA,NA,NA,NA,NA,NA,1,1
3,"hard","control","learning",26,"learning_control_trial_seq",1,"a",0,1,"a",1,"a",0,733.906999991043,0,"1a0",NA,NA,NA,NA,NA,NA,NA,NA,NA,NA,NA,1,0
3,"hard","control","learning",27,"control_further_screen",0,"b",3,1,"a",0,"b",3,872.499999988067,0,"0b3",NA,NA,NA,NA,NA,NA,NA,NA,NA,NA,NA,1,0
3,"hard","control","learning",28,"learning_control_trial_seq",3,"a",0,3,"b",3,"a",0,2374.99400000001,0,"3a0",NA,NA,NA,NA,NA,NA,NA,NA,NA,NA,NA,0,0
3,"hard","control","learning",29,"learning_control_trial_seq",0,"a",3,3,"a",0,"a",3,583.822999999975,0,"0a3",NA,NA,NA,NA,NA,NA,NA,NA,NA,NA,NA,1,0
3,"hard","control","learning",30,"learning_control_trial_seq",3,"a",0,0,"a",3,"a",0,520.123999991047,0,"3a0",NA,NA,NA,NA,NA,NA,NA,NA,NA,NA,NA,1,0
3,"hard","control","learning",31,"learning_control_trial_seq",0,"a",3,3,"a",0,"a",3,2112.31300000002,0,"0a3",NA,NA,NA,NA,NA,NA,NA,NA,NA,NA,NA,0,0
3,"hard","control","learning",32,"control_further_screen",3,"a",2,0,"a",3,"a",2,618.271999997029,0,"3a2",NA,NA,NA,NA,NA,NA,NA,NA,NA,NA,NA,1,0
3,"hard","control","learning",33,"learning_control_trial_seq",2,"b",1,2,"a",2,"b",1,1545.84999999701,0,"2b1",NA,NA,NA,NA,NA,NA,NA,NA,NA,NA,NA,0,0
3,"hard","control","learning",34,"learning_control_trial_seq",1,"b",1,2,"b",1,"b",1,672.387999997009,0,"1b1",NA,NA,NA,NA,NA,NA,NA,NA,NA,NA,NA,1,0
3,"hard","control","learning",35,"learning_control_trial_seq",1,"b",3,1,"b",1,"b",3,581.250999999989,0,"1b3",NA,NA,NA,NA,NA,NA,NA,NA,NA,NA,NA,1,0
3,"hard","control","learning",36,"learning_control_trial_seq",3,"b",3,1,"b",3,"b",3,581.438999994018,0,"3b3",NA,NA,NA,NA,NA,NA,NA,NA,NA,NA,NA,1,0
3,"hard","control","learning",37,"learning_control_trial_seq",3,"b",2,3,"b",3,"b",2,480.293999988062,0,"3b2",NA,NA,NA,NA,NA,NA,NA,NA,NA,NA,NA,1,0
3,"hard","control","learning",38,"learning_control_trial_seq",2,"b",1,3,"b",2,"b",1,507.816999994044,0,"2b1",NA,NA,NA,NA,NA,NA,NA,NA,NA,NA,NA,1,0
3,"hard","control","learning",39,"learning_control_trial_seq",1,"b",1,2,"b",1,"b",1,688.958999997005,0,"1b1",NA,NA,NA,NA,NA,NA,NA,NA,NA,NA,NA,1,0
3,"hard","control","learning",40,"learning_control_trial_seq",1,"b",1,1,"b",1,"b",1,677.799999988056,0,"1b1",NA,NA,NA,NA,NA,NA,NA,NA,NA,NA,NA,1,0
3,"hard","control","learning",41,"learning_control_trial_seq",1,"b",3,1,"b",1,"b",3,570.315999999992,0,"1b3",NA,NA,NA,NA,NA,NA,NA,NA,NA,NA,NA,1,0
3,"hard","control","learning",42,"learning_control_trial_seq",3,"b",2,1,"b",3,"b",2,532.575999988068,0,"3b2",NA,NA,NA,NA,NA,NA,NA,NA,NA,NA,NA,1,0
3,"hard","control","learning",43,"learning_control_trial_seq",2,"b",1,3,"b",2,"b",1,417.610999994038,0,"2b1",NA,NA,NA,NA,NA,NA,NA,NA,NA,NA,NA,1,0
3,"hard","control","learning",44,"learning_control_trial_seq",1,"b",3,2,"b",1,"b",3,426.912000000011,0,"1b3",NA,NA,NA,NA,NA,NA,NA,NA,NA,NA,NA,1,0
3,"hard","control","learning",45,"learning_control_trial_seq",3,"b",2,1,"b",3,"b",2,448.247999994026,0,"3b2",NA,NA,NA,NA,NA,NA,NA,NA,NA,NA,NA,1,0
3,"hard","control","test",46,NA,NA,NA,NA,0,"b",3,NA,3,2781.37199999404,0,"hard_c_vis_0b3","visible","a","b","b","b",TRUE,0,0.4,2781.37199999404,NA,NA,0,0
3,"hard","control","test",47,NA,NA,NA,NA,2,"a",2,NA,2,1037.42399999406,0,"hard_c_vis_2a2","visible","a","b","a","a",TRUE,1,0,1037.42399999406,NA,NA,0,0
3,"hard","control","test",48,NA,NA,NA,NA,3,"a",2,NA,2,1594.961999994,0,"hard_c_vis_3a2","visible","a","b","a","a",TRUE,1,0,1594.961999994,NA,NA,0,0
3,"hard","control","test",49,NA,NA,NA,NA,1,"b",1,NA,3,2467.2249999881,0,"hard_c_vis_1b3","visible","a","b","b","a",FALSE,0,0.4,2467.2249999881,NA,NA,0,0
3,"hard","control","test",50,NA,NA,NA,NA,3,"NA",NA,NA,3,8496.96699999704,0,"hard_c_hid_33-aa-ba","hidden","aa","ba","aa","ba",FALSE,0.4,0,8496.96699999704,NA,NA,0,0
3,"hard","control","test",51,NA,NA,NA,NA,3,"NA",NA,NA,1,5648.99799999408,0,"hard_c_hid_31-ba-bb","hidden","ba","bb","bb","bb",TRUE,0,0.36,5648.99799999408,NA,NA,0,0
3,"hard","control","test",52,NA,NA,NA,NA,0,"a",3,NA,0,3264.66299999703,0,"hard_c_vis_0a0","visible","a","b","a","b",FALSE,0.4,0,3264.66299999703,NA,NA,0,0
3,"hard","control","test",53,NA,NA,NA,NA,1,"a",1,NA,0,1129.38300000003,0,"hard_c_vis_1a0","visible","a","b","a","b",FALSE,0.4,0,1129.38300000003,NA,NA,0,0
3,"hard","control","test",54,NA,NA,NA,NA,2,"NA",NA,NA,1,3059,0,"hard_c_hid_21-ba-ab","hidden","ba","ab","ab","ab",TRUE,0.36,0.6,3059,NA,NA,0,0
3,"hard","control","test",55,NA,NA,NA,NA,1,"NA",NA,NA,2,2414,0,"hard_c_hid_12-ab-ba","hidden","ab","ba","ba","ba",TRUE,0,0.24,2414,NA,NA,0,0
3,"hard","control","test",56,NA,NA,NA,NA,2,"a",2,NA,1,982,0,"hard_c_vis_2a1","visible","a","b","b","b",TRUE,0,0.6,982,NA,NA,1,1
3,"hard","control","test",57,NA,NA,NA,NA,0,"NA",NA,NA,3,6928,0,"hard_c_hid_03-aa-ab","hidden","aa","ab","ab","ab",TRUE,0,0.4,6928,NA,NA,0,0
3,"hard","control","test",58,NA,NA,NA,NA,2,"b",1,NA,0,1547,0,"hard_c_vis_2b0","visible","a","b","a","a",TRUE,0.4,0,1547,NA,NA,0,0
3,"hard","control","test",59,NA,NA,NA,NA,1,"NA",NA,NA,0,1926,0,"hard_c_hid_10-aa-bb","hidden","aa","bb","aa","bb",FALSE,0.24,0,1926,NA,NA,0,0
3,"hard","control","test",60,NA,NA,NA,NA,2,"NA",NA,NA,3,1916,0,"hard_c_hid_23-ba-ab","hidden","ba","ab","ba","ab",FALSE,0.4,0,1916,NA,NA,0,0
3,"hard","control","test",61,NA,NA,NA,NA,3,"b",2,NA,1,1394,0,"hard_c_vis_3b1","visible","a","b","b","b",TRUE,0,0.6,1394,NA,NA,0,0
3,"hard","control","test",62,NA,NA,NA,NA,0,"NA",NA,NA,0,5169,0,"hard_c_hid_00-aa-bb","hidden","aa","bb","aa","aa",TRUE,0.4,0,5169,NA,NA,0,0
3,"hard","control","test",63,NA,NA,NA,NA,1,"NA",NA,NA,3,2830,0,"hard_c_hid_13-ab-ba","hidden","ab","ba","ab","ab",TRUE,0.64,0,2830,NA,NA,0,0
3,"hard","control","test",64,NA,NA,NA,NA,2,"a",2,NA,0,1760,0,"hard_c_vis_2a0","visible","a","b","b","b",TRUE,0,0.4,1760,NA,NA,0,0
3,"hard","control","test",65,NA,NA,NA,NA,1,"NA",NA,NA,3,3171,0,"hard_c_hid_13-aa-ba","hidden","aa","ba","aa","ba",FALSE,0.4,0,3171,NA,NA,0,0
4,"easy","control","learning",2,"trial_1_seq",1,"b",0,NA,NA,1,"b",0,1629,0,"1b0",NA,NA,NA,NA,NA,NA,NA,NA,NA,NA,NA,0,0
4,"easy","control","learning",3,"trial_2_seq",0,"b",2,1,"b",0,"b",2,1290,0,"0b2",NA,NA,NA,NA,NA,NA,NA,NA,NA,NA,NA,0,0
4,"easy","control","learning",4,"learning_control_trial_seq",2,"b",2,0,"b",2,"b",2,1443,0,"2b2",NA,NA,NA,NA,NA,NA,NA,NA,NA,NA,NA,0,0
4,"easy","control","learning",5,"learning_control_trial_seq",2,"b",2,2,"b",2,"b",2,1190,0,"2b2",NA,NA,NA,NA,NA,NA,NA,NA,NA,NA,NA,0,0
4,"easy","control","learning",6,"learning_control_trial_seq",2,"a",3,2,"b",2,"a",3,2739,0,"2a3",NA,NA,NA,NA,NA,NA,NA,NA,NA,NA,NA,0,0
4,"easy","control","learning",7,"learning_control_trial_seq",3,"a",1,2,"a",3,"a",1,1458,0,"3a1",NA,NA,NA,NA,NA,NA,NA,NA,NA,NA,NA,0,0
4,"easy","control","learning",8,"learning_control_trial_seq",1,"b",0,3,"a",1,"b",0,3994,0,"1b0",NA,NA,NA,NA,NA,NA,NA,NA,NA,NA,NA,0,0
4,"easy","control","learning",9,"learning_control_trial_seq",0,"b",2,1,"b",0,"b",2,1318,0,"0b2",NA,NA,NA,NA,NA,NA,NA,NA,NA,NA,NA,0,0
4,"easy","control","learning",10,"learning_control_trial_seq",2,"a",0,0,"b",2,"a",0,1857,0,"2a0",NA,NA,NA,NA,NA,NA,NA,NA,NA,NA,NA,0,0
4,"easy","control","learning",11,"learning_control_trial_seq",0,"a",2,2,"a",0,"a",2,1063,0,"0a2",NA,NA,NA,NA,NA,NA,NA,NA,NA,NA,NA,0,0
4,"easy","control","learning",12,"control_further_screen",2,"a",3,0,"a",2,"a",3,2227,0,"2a3",NA,NA,NA,NA,NA,NA,NA,NA,NA,NA,NA,0,0
4,"easy","control","learning",13,"learning_control_trial_seq",0,"a",2,3,"a",0,"a",2,4037,0,"0a2",NA,NA,NA,NA,NA,NA,NA,NA,NA,NA,NA,0,0
4,"easy","control","learning",14,"learning_control_trial_seq",2,"a",0,0,"a",2,"a",0,612,0,"2a0",NA,NA,NA,NA,NA,NA,NA,NA,NA,NA,NA,1,0
4,"easy","control","learning",15,"learning_control_trial_seq",0,"a",2,2,"a",0,"a",2,706,0,"0a2",NA,NA,NA,NA,NA,NA,NA,NA,NA,NA,NA,1,0
4,"easy","control","learning",16,"learning_control_trial_seq",2,"a",0,0,"a",2,"a",0,622,0,"2a0",NA,NA,NA,NA,NA,NA,NA,NA,NA,NA,NA,1,0
4,"easy","control","learning",17,"control_further_screen",0,"b",2,2,"a",0,"b",2,940,0,"0b2",NA,NA,NA,NA,NA,NA,NA,NA,NA,NA,NA,1,0
4,"easy","control","learning",18,"learning_control_trial_seq",3,"b",3,2,"a",3,"b",3,1229,0,"3b3",NA,NA,NA,NA,NA,NA,NA,NA,NA,NA,NA,0,0
4,"easy","control","learning",19,"learning_control_trial_seq",3,"b",3,3,"b",3,"b",3,1383,0,"3b3",NA,NA,NA,NA,NA,NA,NA,NA,NA,NA,NA,0,0
4,"easy","control","learning",20,"learning_control_trial_seq",3,"a",0,3,"b",3,"a",0,1202,0,"3a0",NA,NA,NA,NA,NA,NA,NA,NA,NA,NA,NA,0,0
4,"easy","control","learning",21,"learning_control_trial_seq",0,"a",2,3,"a",0,"a",2,1079,0,"0a2",NA,NA,NA,NA,NA,NA,NA,NA,NA,NA,NA,0,0
4,"easy","control","learning",22,"learning_control_trial_seq",2,"a",0,0,"a",2,"a",0,1081,0,"2a0",NA,NA,NA,NA,NA,NA,NA,NA,NA,NA,NA,0,0
4,"easy","control","learning",23,"control_further_screen",0,"b",2,2,"a",0,"b",2,1263,0,"0b2",NA,NA,NA,NA,NA,NA,NA,NA,NA,NA,NA,0,0
4,"easy","control","learning",24,"learning_control_trial_seq",2,"a",0,2,"b",2,"a",0,1240,0,"2a0",NA,NA,NA,NA,NA,NA,NA,NA,NA,NA,NA,0,0
4,"easy","control","learning",25,"learning_control_trial_seq",0,"a",2,2,"a",0,"a",2,434,0,"0a2",NA,NA,NA,NA,NA,NA,NA,NA,NA,NA,NA,1,0
4,"easy","control","learning",26,"learning_control_trial_seq",2,"b",2,0,"a",2,"b",2,889,0,"2b2",NA,NA,NA,NA,NA,NA,NA,NA,NA,NA,NA,1,0
4,"easy","control","learning",27,"control_further_screen",2,"b",2,2,"b",2,"b",2,3808,0,"2b2",NA,NA,NA,NA,NA,NA,NA,NA,NA,NA,NA,0,0
4,"easy","control","learning",28,"learning_control_trial_seq",2,"b",2,2,"b",2,"b",2,1690,0,"2b2",NA,NA,NA,NA,NA,NA,NA,NA,NA,NA,NA,0,0
4,"easy","control","learning",29,"learning_control_trial_seq",2,"b",2,2,"b",2,"b",2,967,0,"2b2",NA,NA,NA,NA,NA,NA,NA,NA,NA,NA,NA,1,0
4,"easy","control","learning",30,"learning_control_trial_seq",2,"a",3,2,"b",2,"a",3,777,0,"2a3",NA,NA,NA,NA,NA,NA,NA,NA,NA,NA,NA,1,0
4,"easy","control","learning",31,"learning_control_trial_seq",3,"a",1,2,"a",3,"a",1,623,0,"3a1",NA,NA,NA,NA,NA,NA,NA,NA,NA,NA,NA,1,0
4,"easy","control","learning",32,"learning_control_trial_seq",1,"b",0,3,"a",1,"b",0,2819,0,"1b0",NA,NA,NA,NA,NA,NA,NA,NA,NA,NA,NA,0,0
4,"easy","control","learning",33,"control_further_screen",0,"b",2,1,"b",0,"b",2,2511,0,"0b2",NA,NA,NA,NA,NA,NA,NA,NA,NA,NA,NA,0,0
4,"easy","control","learning",34,"learning_control_trial_seq",0,"b",2,2,"a",0,"b",2,1182,0,"0b2",NA,NA,NA,NA,NA,NA,NA,NA,NA,NA,NA,0,0
4,"easy","control","learning",35,"learning_control_trial_seq",2,"b",2,0,"b",2,"b",2,625,0,"2b2",NA,NA,NA,NA,NA,NA,NA,NA,NA,NA,NA,1,0
4,"easy","control","learning",36,"learning_control_trial_seq",2,"a",0,2,"b",2,"a",0,758,0,"2a0",NA,NA,NA,NA,NA,NA,NA,NA,NA,NA,NA,1,0
4,"easy","control","learning",37,"learning_control_trial_seq",0,"a",2,2,"a",0,"a",2,924,0,"0a2",NA,NA,NA,NA,NA,NA,NA,NA,NA,NA,NA,1,0
4,"easy","control","learning",38,"learning_control_trial_seq",2,"b",2,0,"a",2,"b",2,2940,0,"2b2",NA,NA,NA,NA,NA,NA,NA,NA,NA,NA,NA,0,0
4,"easy","control","learning",39,"learning_control_trial_seq",2,"a",3,2,"b",2,"a",3,779,0,"2a3",NA,NA,NA,NA,NA,NA,NA,NA,NA,NA,NA,1,0
4,"easy","control","learning",40,"learning_control_trial_seq",3,"b",3,2,"a",3,"b",3,1385,0,"3b3",NA,NA,NA,NA,NA,NA,NA,NA,NA,NA,NA,0,0
4,"easy","control","learning",41,"learning_control_trial_seq",3,"a",1,3,"b",3,"a",1,1572,0,"3a1",NA,NA,NA,NA,NA,NA,NA,NA,NA,NA,NA,0,0
4,"easy","control","learning",42,"learning_control_trial_seq",1,"a",0,3,"a",1,"a",0,1167,0,"1a0",NA,NA,NA,NA,NA,NA,NA,NA,NA,NA,NA,0,0
4,"easy","control","learning",43,"learning_control_trial_seq",0,"a",2,1,"a",0,"a",2,960,0,"0a2",NA,NA,NA,NA,NA,NA,NA,NA,NA,NA,NA,1,0
4,"easy","control","learning",44,"learning_control_trial_seq",2,"a",0,0,"a",2,"a",0,728,0,"2a0",NA,NA,NA,NA,NA,NA,NA,NA,NA,NA,NA,1,0
4,"easy","control","learning",45,"learning_control_trial_seq",0,"b",2,2,"a",0,"b",2,2219,0,"0b2",NA,NA,NA,NA,NA,NA,NA,NA,NA,NA,NA,0,0
4,"easy","control","test",46,NA,NA,NA,NA,2,"NA",NA,NA,3,6356,0,"easy_c_hid_23-aa-ab","hidden","aa","ab","ab","aa",FALSE,0,0.4,6356,NA,NA,0,0
4,"easy","control","test",47,NA,NA,NA,NA,0,"NA",NA,NA,2,10279,0,"easy_c_hid_02-aa-bb","hidden","aa","bb","bb","aa",FALSE,0,1,10279,NA,NA,0,0
4,"easy","control","test",48,NA,NA,NA,NA,2,"b",2,NA,2,5204,0,"easy_c_vis_2b2","visible","a","b","b","b",TRUE,0,1,5204,NA,NA,0,0
4,"easy","control","test",49,NA,NA,NA,NA,0,"NA",NA,NA,0,873,0,"easy_c_hid_00-aa-ab","hidden","aa","ab","aa","aa",TRUE,0.6,0,873,NA,NA,1,1
4,"easy","control","test",50,NA,NA,NA,NA,2,"a",3,NA,1,4166,0,"easy_c_vis_2a1","visible","a","b","a","a",TRUE,0.6,0,4166,NA,NA,0,0
4,"easy","control","test",51,NA,NA,NA,NA,2,"NA",NA,NA,1,4102,0,"easy_c_hid_21-ab-aa","hidden","ab","aa","aa","aa",TRUE,0,0.24,4102,NA,NA,0,0
4,"easy","control","test",52,NA,NA,NA,NA,0,"b",2,NA,3,4198,0,"easy_c_vis_0b3","visible","a","b","a","b",FALSE,0.4,0,4198,NA,NA,0,0
4,"easy","control","test",53,NA,NA,NA,NA,3,"NA",NA,NA,3,4620,0,"easy_c_hid_33-bb-ba","hidden","bb","ba","bb","bb",TRUE,1,0,4620,NA,NA,0,0
4,"easy","control","test",54,NA,NA,NA,NA,3,"NA",NA,NA,2,10175,0,"easy_c_hid_32-ab-ba","hidden","ab","ba","ab","ba",FALSE,0.4,0,10175,NA,NA,0,0
4,"easy","control","test",55,NA,NA,NA,NA,2,"a",3,NA,3,6108,0,"easy_c_vis_2a3","visible","a","b","b","a",FALSE,0,1,6108,NA,NA,0,0
4,"easy","control","test",56,NA,NA,NA,NA,3,"NA",NA,NA,1,5025,0,"easy_c_hid_31-aa-ba","hidden","aa","ba","ba","aa",FALSE,0,0.6,5025,NA,NA,0,0
4,"easy","control","test",57,NA,NA,NA,NA,0,"b",2,NA,2,3050,0,"easy_c_vis_0b2","visible","a","b","b","b",TRUE,0,1,3050,NA,NA,0,0
4,"easy","control","test",58,NA,NA,NA,NA,0,"a",2,NA,2,5440,0,"easy_c_vis_0a2","visible","a","b","b","a",FALSE,0,1,5440,NA,NA,0,0
4,"easy","control","test",59,NA,NA,NA,NA,2,"NA",NA,NA,2,6488,0,"easy_c_hid_22-aa-bb","hidden","aa","bb","bb","bb",TRUE,0.6,1,6488,NA,NA,0,0
4,"easy","control","test",60,NA,NA,NA,NA,3,"b",3,NA,0,3817,0,"easy_c_vis_3b0","visible","a","b","a","a",TRUE,0.4,0,3817,NA,NA,0,0
4,"easy","control","test",61,NA,NA,NA,NA,3,"NA",NA,NA,2,9459,0,"easy_c_hid_32-aa-bb","hidden","aa","bb","aa","aa",TRUE,0.4,0,9459,NA,NA,0,0
4,"easy","control","test",62,NA,NA,NA,NA,3,"b",3,NA,3,2102,0,"easy_c_vis_3b3","visible","a","b","b","b",TRUE,0,1,2102,NA,NA,0,0
4,"easy","control","test",63,NA,NA,NA,NA,0,"NA",NA,NA,3,6760,0,"easy_c_hid_03-ab-aa","hidden","ab","aa","aa","ab",FALSE,0,0.4,6760,NA,NA,0,0
4,"easy","control","test",64,NA,NA,NA,NA,0,"a",2,NA,3,9622,0,"easy_c_vis_0a3","visible","a","b","a","b",FALSE,0.4,0,9622,NA,NA,0,0
4,"easy","control","test",65,NA,NA,NA,NA,0,"a",2,NA,0,7395,0,"easy_c_vis_0a0","visible","a","b","a","a",TRUE,0.6,0,7395,NA,NA,0,0
5,"easy","prediction","learning",2,"trial_1_seq",1,"b",0,NA,NA,1,"b",0,5173,0,"1b0",NA,NA,NA,NA,NA,NA,NA,NA,NA,NA,NA,0,0
5,"easy","prediction","learning",3,"trial_2_seq",0,"a",2,1,"b",0,"a",2,3768,0,"0a2",NA,NA,NA,NA,NA,NA,NA,NA,NA,NA,NA,0,0
5,"easy","prediction","learning",4,"learning_control_trial_seq",2,"a",0,0,"a",2,"a",0,2827,0,"2a0",NA,NA,NA,NA,NA,NA,NA,NA,NA,NA,NA,0,0
5,"easy","prediction","learning",5,"learning_control_trial_seq",0,"a",2,2,"a",0,"a",2,3047,0,"0a2",NA,NA,NA,NA,NA,NA,NA,NA,NA,NA,NA,0,0
5,"easy","prediction","learning",6,"learning_control_trial_seq",2,"b",2,0,"a",2,"b",2,2098,0,"2b2",NA,NA,NA,NA,NA,NA,NA,NA,NA,NA,NA,0,0
5,"easy","prediction","learning",7,"learning_control_trial_seq",2,"b",2,2,"b",2,"b",2,2112,0,"2b2",NA,NA,NA,NA,NA,NA,NA,NA,NA,NA,NA,0,0
5,"easy","prediction","learning",8,"learning_control_trial_seq",2,"b",2,2,"b",2,"b",2,1691,0,"2b2",NA,NA,NA,NA,NA,NA,NA,NA,NA,NA,NA,0,0
5,"easy","prediction","learning",9,"learning_control_trial_seq",2,"a",0,2,"b",2,"a",0,3240,0,"2a0",NA,NA,NA,NA,NA,NA,NA,NA,NA,NA,NA,0,0
5,"easy","prediction","learning",10,"learning_control_trial_seq",0,"a",2,2,"a",0,"a",2,3526,0,"0a2",NA,NA,NA,NA,NA,NA,NA,NA,NA,NA,NA,0,0
5,"easy","prediction","learning",11,"learning_control_trial_seq",2,"a",0,0,"a",2,"a",0,1125,0,"2a0",NA,NA,NA,NA,NA,NA,NA,NA,NA,NA,NA,0,0
5,"easy","prediction","learning",12,"learning_control_trial_seq",0,"b",2,2,"a",0,"b",2,2291,0,"0b2",NA,NA,NA,NA,NA,NA,NA,NA,NA,NA,NA,0,0
5,"easy","prediction","learning",13,"learning_control_trial_seq",2,"b",2,0,"b",2,"b",2,3849,0,"2b2",NA,NA,NA,NA,NA,NA,NA,NA,NA,NA,NA,0,0
5,"easy","prediction","learning",14,"learning_control_trial_seq",2,"b",2,2,"b",2,"b",2,1248,0,"2b2",NA,NA,NA,NA,NA,NA,NA,NA,NA,NA,NA,0,0
5,"easy","prediction","learning",15,"learning_control_trial_seq",2,"a",3,2,"b",2,"a",3,1330,0,"2a3",NA,NA,NA,NA,NA,NA,NA,NA,NA,NA,NA,0,0
5,"easy","prediction","learning",16,"learning_control_trial_seq",3,"a",1,2,"a",3,"a",1,3589,0,"3a1",NA,NA,NA,NA,NA,NA,NA,NA,NA,NA,NA,0,0
5,"easy","prediction","learning",17,"learning_control_trial_seq",1,"a",0,3,"a",1,"a",0,1561,0,"1a0",NA,NA,NA,NA,NA,NA,NA,NA,NA,NA,NA,0,0
5,"easy","prediction","learning",18,"learning_control_trial_seq",0,"b",2,1,"a",0,"b",2,2648,0,"0b2",NA,NA,NA,NA,NA,NA,NA,NA,NA,NA,NA,0,0
5,"easy","prediction","learning",19,"learning_control_trial_seq",2,"b",2,0,"b",2,"b",2,2140,0,"2b2",NA,NA,NA,NA,NA,NA,NA,NA,NA,NA,NA,0,0
5,"easy","prediction","learning",20,"learning_control_trial_seq",2,"a",3,2,"b",2,"a",3,878,0,"2a3",NA,NA,NA,NA,NA,NA,NA,NA,NA,NA,NA,1,0
5,"easy","prediction","learning",21,"learning_control_trial_seq",3,"a",0,2,"a",3,"a",0,1488,0,"3a0",NA,NA,NA,NA,NA,NA,NA,NA,NA,NA,NA,0,0
5,"easy","prediction","learning",22,"learning_control_trial_seq",0,"a",2,3,"a",0,"a",2,1181,0,"0a2",NA,NA,NA,NA,NA,NA,NA,NA,NA,NA,NA,0,0
5,"easy","prediction","learning",23,"learning_control_trial_seq",2,"b",2,0,"a",2,"b",2,2303,0,"2b2",NA,NA,NA,NA,NA,NA,NA,NA,NA,NA,NA,0,0
5,"easy","prediction","learning",24,"learning_control_trial_seq",2,"b",2,2,"b",2,"b",2,874,0,"2b2",NA,NA,NA,NA,NA,NA,NA,NA,NA,NA,NA,1,0
5,"easy","prediction","learning",25,"learning_control_trial_seq",2,"a",0,2,"b",2,"a",0,574,0,"2a0",NA,NA,NA,NA,NA,NA,NA,NA,NA,NA,NA,1,0
5,"easy","prediction","learning",26,"learning_control_trial_seq",0,"a",2,2,"a",0,"a",2,1458,0,"0a2",NA,NA,NA,NA,NA,NA,NA,NA,NA,NA,NA,0,0
5,"easy","prediction","learning",27,"learning_control_trial_seq",2,"a",3,0,"a",2,"a",3,1639,0,"2a3",NA,NA,NA,NA,NA,NA,NA,NA,NA,NA,NA,0,0
5,"easy","prediction","learning",28,"learning_control_trial_seq",3,"a",1,2,"a",3,"a",1,1986,0,"3a1",NA,NA,NA,NA,NA,NA,NA,NA,NA,NA,NA,0,0
5,"easy","prediction","learning",29,"learning_control_trial_seq",1,"b",0,3,"a",1,"b",0,1216,0,"1b0",NA,NA,NA,NA,NA,NA,NA,NA,NA,NA,NA,0,0
5,"easy","prediction","learning",30,"learning_control_trial_seq",0,"b",2,1,"b",0,"b",2,721,0,"0b2",NA,NA,NA,NA,NA,NA,NA,NA,NA,NA,NA,1,0
5,"easy","prediction","learning",31,"learning_control_trial_seq",2,"a",0,0,"b",2,"a",0,1350,0,"2a0",NA,NA,NA,NA,NA,NA,NA,NA,NA,NA,NA,0,0
5,"easy","prediction","learning",32,"learning_control_trial_seq",0,"a",2,2,"a",0,"a",2,2939,0,"0a2",NA,NA,NA,NA,NA,NA,NA,NA,NA,NA,NA,0,0
5,"easy","prediction","learning",33,"learning_control_trial_seq",2,"b",2,0,"a",2,"b",2,2376,0,"2b2",NA,NA,NA,NA,NA,NA,NA,NA,NA,NA,NA,0,0
5,"easy","prediction","learning",34,"learning_control_trial_seq",2,"b",2,2,"b",2,"b",2,512,0,"2b2",NA,NA,NA,NA,NA,NA,NA,NA,NA,NA,NA,1,0
5,"easy","prediction","learning",35,"learning_control_trial_seq",2,"a",0,2,"b",2,"a",0,481,0,"2a0",NA,NA,NA,NA,NA,NA,NA,NA,NA,NA,NA,1,0
5,"easy","prediction","learning",36,"learning_control_trial_seq",0,"a",2,2,"a",0,"a",2,1100,0,"0a2",NA,NA,NA,NA,NA,NA,NA,NA,NA,NA,NA,0,0
5,"easy","prediction","learning",37,"learning_control_trial_seq",2,"a",3,0,"a",2,"a",3,1528,0,"2a3",NA,NA,NA,NA,NA,NA,NA,NA,NA,NA,NA,0,0
5,"easy","prediction","learning",38,"learning_control_trial_seq",3,"b",3,2,"a",3,"b",3,1178,0,"3b3",NA,NA,NA,NA,NA,NA,NA,NA,NA,NA,NA,0,0
5,"easy","prediction","learning",39,"learning_control_trial_seq",3,"b",3,3,"b",3,"b",3,1556,0,"3b3",NA,NA,NA,NA,NA,NA,NA,NA,NA,NA,NA,0,0
5,"easy","prediction","learning",40,"learning_control_trial_seq",3,"b",3,3,"b",3,"b",3,2505,0,"3b3",NA,NA,NA,NA,NA,NA,NA,NA,NA,NA,NA,0,0
5,"easy","prediction","learning",41,"learning_control_trial_seq",3,"a",1,3,"b",3,"a",1,1084,0,"3a1",NA,NA,NA,NA,NA,NA,NA,NA,NA,NA,NA,0,0
5,"easy","prediction","learning",42,"learning_control_trial_seq",1,"a",0,3,"a",1,"a",0,2242,0,"1a0",NA,NA,NA,NA,NA,NA,NA,NA,NA,NA,NA,0,0
5,"easy","prediction","learning",43,"learning_control_trial_seq",0,"a",2,1,"a",0,"a",2,1061,0,"0a2",NA,NA,NA,NA,NA,NA,NA,NA,NA,NA,NA,0,0
5,"easy","prediction","learning",44,"learning_control_trial_seq",2,"b",2,0,"a",2,"b",2,696,0,"2b2",NA,NA,NA,NA,NA,NA,NA,NA,NA,NA,NA,1,0
5,"easy","prediction","learning",45,"learning_control_trial_seq",2,"b",2,2,"b",2,"b",2,2032,0,"2b2",NA,NA,NA,NA,NA,NA,NA,NA,NA,NA,NA,0,0
5,"easy","prediction","test",46,NA,NA,NA,NA,3,"b",3,"b",NA,6190,0,"easy_p_vis_3b3b13","visible","1","3","3","1",FALSE,0,1,NA,NA,NA,0,0
5,"easy","prediction","test",47,NA,NA,NA,NA,3,"a",1,"b",NA,5679,0,"easy_p_vis_3a1b30","visible","3","0","0","0",TRUE,0,1,NA,NA,NA,0,0
5,"easy","prediction","test",48,NA,NA,NA,NA,3,"a",NA,"b",NA,5066,0,"easy_p_hid_3ab21","hidden","2","1","2","2",TRUE,0.4,0,NA,NA,NA,0,0
5,"easy","prediction","test",49,NA,NA,NA,NA,2,"a",3,"a",NA,9264,0,"easy_p_vis_2a3a03","visible","0","3","0","3",FALSE,0.4,0,NA,NA,NA,0,0
5,"easy","prediction","test",50,NA,NA,NA,NA,1,"b",0,"b",NA,3411,0,"easy_p_vis_1b0b21","visible","2","1","2","1",FALSE,1,0,NA,NA,NA,0,0
5,"easy","prediction","test",51,NA,NA,NA,NA,2,"b",2,"a",NA,4036,0,"easy_p_vis_2b2a13","visible","1","3","3","3",TRUE,0,0.4,NA,NA,NA,0,0
5,"easy","prediction","test",52,NA,NA,NA,NA,0,"b",2,"b",NA,3030,0,"easy_p_vis_0b2b23","visible","2","3","2","2",TRUE,1,0,NA,NA,NA,0,0
5,"easy","prediction","test",53,NA,NA,NA,NA,1,"b",NA,"a",NA,4790,0,"easy_p_hid_1ba21","hidden","2","1","2","2",TRUE,1,0,NA,NA,NA,0,0
5,"easy","prediction","test",54,NA,NA,NA,NA,2,"a",3,"a",NA,7536,0,"easy_p_vis_2a3a31","visible","3","1","1","3",FALSE,0,0.6,NA,NA,NA,0,0
5,"easy","prediction","test",55,NA,NA,NA,NA,0,"a",NA,"a",NA,2927,0,"easy_p_hid_0aa10","hidden","1","0","0","0",TRUE,0,0.6,NA,NA,NA,0,0
5,"easy","prediction","test",56,NA,NA,NA,NA,3,"b",3,"a",NA,2818,0,"easy_p_vis_3b3a13","visible","1","3","1","1",TRUE,0.6,0,NA,NA,NA,0,0
5,"easy","prediction","test",57,NA,NA,NA,NA,2,"a",NA,"b",NA,9152,0,"easy_p_hid_2ab03","hidden","0","3","3","0",FALSE,0,0.4,NA,NA,NA,0,0
5,"easy","prediction","test",58,NA,NA,NA,NA,0,"b",NA,"a",NA,5120,0,"easy_p_hid_0ba30","hidden","3","0","0","3",FALSE,0.4,0.6,NA,NA,NA,0,0
5,"easy","prediction","test",59,NA,NA,NA,NA,1,"a",0,"a",NA,3657,0,"easy_p_vis_1a0a20","visible","2","0","2","0",FALSE,1,0,NA,NA,NA,0,0
5,"easy","prediction","test",60,NA,NA,NA,NA,2,"a",NA,"a",NA,5583,0,"easy_p_hid_2aa31","hidden","3","1","1","3",FALSE,0,0.24,NA,NA,NA,0,0
5,"easy","prediction","test",61,NA,NA,NA,NA,2,"b",NA,"a",NA,8726,0,"easy_p_hid_2ba13","hidden","1","3","3","3",TRUE,0,0.4,NA,NA,NA,0,0
5,"easy","prediction","test",62,NA,NA,NA,NA,3,"a",1,"a",NA,6834,0,"easy_p_vis_3a1a01","visible","0","1","0","1",FALSE,1,0,NA,NA,NA,0,0
5,"easy","prediction","test",63,NA,NA,NA,NA,3,"b",NA,"a",NA,9221,0,"easy_p_hid_3ba31","hidden","3","1","1","3",FALSE,0,0.6,NA,NA,NA,0,0
5,"easy","prediction","test",64,NA,NA,NA,NA,3,"a",NA,"a",NA,2856,0,"easy_p_hid_3aa21","hidden","2","1","2","2",TRUE,0.4,0,NA,NA,NA,0,0
5,"easy","prediction","test",65,NA,NA,NA,NA,2,"a",NA,"b",NA,4952,0,"easy_p_hid_2ab13","hidden","1","3","3","1",FALSE,0,0.4,NA,NA,NA,0,0
6,"hard","prediction","learning",2,"trial_1_seq",1,"a",0,NA,NA,1,"a",0,1422,0,"1a0",NA,NA,NA,NA,NA,NA,NA,NA,NA,NA,NA,0,0
6,"hard","prediction","learning",3,"trial_2_seq",0,"a",3,1,"a",0,"a",3,1389,0,"0a3",NA,NA,NA,NA,NA,NA,NA,NA,NA,NA,NA,0,0
6,"hard","prediction","learning",4,"learning_control_trial_seq",3,"a",2,0,"a",3,"a",2,1972,0,"3a2",NA,NA,NA,NA,NA,NA,NA,NA,NA,NA,NA,0,0
6,"hard","prediction","learning",5,"learning_control_trial_seq",2,"a",2,3,"a",2,"a",2,739,0,"2a2",NA,NA,NA,NA,NA,NA,NA,NA,NA,NA,NA,1,0
6,"hard","prediction","learning",6,"learning_control_trial_seq",2,"a",2,2,"a",2,"a",2,789,0,"2a2",NA,NA,NA,NA,NA,NA,NA,NA,NA,NA,NA,1,0
6,"hard","prediction","learning",7,"learning_control_trial_seq",2,"b",1,2,"a",2,"b",1,805,0,"2b1",NA,NA,NA,NA,NA,NA,NA,NA,NA,NA,NA,1,0
6,"hard","prediction","learning",8,"learning_control_trial_seq",1,"b",1,2,"b",1,"b",1,1122,0,"1b1",NA,NA,NA,NA,NA,NA,NA,NA,NA,NA,NA,0,0
6,"hard","prediction","learning",9,"learning_control_trial_seq",1,"a",1,1,"b",1,"a",1,938,0,"1a1",NA,NA,NA,NA,NA,NA,NA,NA,NA,NA,NA,1,0
6,"hard","prediction","learning",10,"learning_control_trial_seq",1,"b",3,1,"a",1,"b",3,856,0,"1b3",NA,NA,NA,NA,NA,NA,NA,NA,NA,NA,NA,1,0
6,"hard","prediction","learning",11,"learning_control_trial_seq",3,"a",2,1,"b",3,"a",2,656,0,"3a2",NA,NA,NA,NA,NA,NA,NA,NA,NA,NA,NA,1,0
6,"hard","prediction","learning",12,"learning_control_trial_seq",2,"a",2,3,"a",2,"a",2,705,0,"2a2",NA,NA,NA,NA,NA,NA,NA,NA,NA,NA,NA,1,0
6,"hard","prediction","learning",13,"learning_control_trial_seq",2,"b",1,2,"a",2,"b",1,17957,0,"2b1",NA,NA,NA,NA,NA,NA,NA,NA,NA,NA,NA,0,0
6,"hard","prediction","learning",14,"learning_control_trial_seq",1,"b",1,2,"b",1,"b",1,1005,0,"1b1",NA,NA,NA,NA,NA,NA,NA,NA,NA,NA,NA,0,0
6,"hard","prediction","learning",15,"learning_control_trial_seq",1,"a",1,1,"b",1,"a",1,1205,0,"1a1",NA,NA,NA,NA,NA,NA,NA,NA,NA,NA,NA,0,0
6,"hard","prediction","learning",16,"learning_control_trial_seq",1,"a",1,1,"a",1,"a",1,622,0,"1a1",NA,NA,NA,NA,NA,NA,NA,NA,NA,NA,NA,1,0
6,"hard","prediction","learning",17,"learning_control_trial_seq",1,"a",0,1,"a",1,"a",0,556,0,"1a0",NA,NA,NA,NA,NA,NA,NA,NA,NA,NA,NA,1,0
6,"hard","prediction","learning",18,"learning_control_trial_seq",0,"b",3,1,"a",0,"b",3,3039,0,"0b3",NA,NA,NA,NA,NA,NA,NA,NA,NA,NA,NA,0,0
6,"hard","prediction","learning",19,"learning_control_trial_seq",3,"b",3,0,"b",3,"b",3,672,0,"3b3",NA,NA,NA,NA,NA,NA,NA,NA,NA,NA,NA,1,0
6,"hard","prediction","learning",20,"learning_control_trial_seq",3,"b",2,3,"b",3,"b",2,4688,0,"3b2",NA,NA,NA,NA,NA,NA,NA,NA,NA,NA,NA,0,0
6,"hard","prediction","learning",21,"learning_control_trial_seq",2,"b",1,3,"b",2,"b",1,955,0,"2b1",NA,NA,NA,NA,NA,NA,NA,NA,NA,NA,NA,1,0
6,"hard","prediction","learning",22,"learning_control_trial_seq",1,"b",1,2,"b",1,"b",1,689,0,"1b1",NA,NA,NA,NA,NA,NA,NA,NA,NA,NA,NA,1,0
6,"hard","prediction","learning",23,"learning_control_trial_seq",1,"a",0,1,"b",1,"a",0,1422,0,"1a0",NA,NA,NA,NA,NA,NA,NA,NA,NA,NA,NA,0,0
6,"hard","prediction","learning",24,"learning_control_trial_seq",0,"a",3,1,"a",0,"a",3,1256,0,"0a3",NA,NA,NA,NA,NA,NA,NA,NA,NA,NA,NA,0,0
6,"hard","prediction","learning",25,"learning_control_trial_seq",3,"a",0,0,"a",3,"a",0,588,0,"3a0",NA,NA,NA,NA,NA,NA,NA,NA,NA,NA,NA,1,0
6,"hard","prediction","learning",26,"learning_control_trial_seq",0,"a",3,3,"a",0,"a",3,572,0,"0a3",NA,NA,NA,NA,NA,NA,NA,NA,NA,NA,NA,1,0
6,"hard","prediction","learning",27,"learning_control_trial_seq",3,"a",2,0,"a",3,"a",2,2022,0,"3a2",NA,NA,NA,NA,NA,NA,NA,NA,NA,NA,NA,0,0
6,"hard","prediction","learning",28,"learning_control_trial_seq",2,"b",0,3,"a",2,"b",0,889,0,"2b0",NA,NA,NA,NA,NA,NA,NA,NA,NA,NA,NA,1,0
6,"hard","prediction","learning",29,"learning_control_trial_seq",0,"b",3,2,"b",0,"b",3,1022,0,"0b3",NA,NA,NA,NA,NA,NA,NA,NA,NA,NA,NA,0,0
6,"hard","prediction","learning",30,"learning_control_trial_seq",3,"b",2,0,"b",3,"b",2,672,0,"3b2",NA,NA,NA,NA,NA,NA,NA,NA,NA,NA,NA,1,0
6,"hard","prediction","learning",31,"learning_control_trial_seq",2,"b",0,3,"b",2,"b",0,556,0,"2b0",NA,NA,NA,NA,NA,NA,NA,NA,NA,NA,NA,1,0
6,"hard","prediction","learning",32,"learning_control_trial_seq",0,"b",3,2,"b",0,"b",3,606,0,"0b3",NA,NA,NA,NA,NA,NA,NA,NA,NA,NA,NA,1,0
6,"hard","prediction","learning",33,"learning_control_trial_seq",3,"a",0,0,"b",3,"a",0,1072,0,"3a0",NA,NA,NA,NA,NA,NA,NA,NA,NA,NA,NA,0,0
6,"hard","prediction","learning",34,"learning_control_trial_seq",0,"a",3,3,"a",0,"a",3,3055,0,"0a3",NA,NA,NA,NA,NA,NA,NA,NA,NA,NA,NA,0,0
6,"hard","prediction","learning",35,"learning_control_trial_seq",3,"a",2,0,"a",3,"a",2,1106,0,"3a2",NA,NA,NA,NA,NA,NA,NA,NA,NA,NA,NA,0,0
6,"hard","prediction","learning",36,"learning_control_trial_seq",2,"a",2,3,"a",2,"a",2,672,0,"2a2",NA,NA,NA,NA,NA,NA,NA,NA,NA,NA,NA,1,0
6,"hard","prediction","learning",37,"learning_control_trial_seq",2,"a",2,2,"a",2,"a",2,639,0,"2a2",NA,NA,NA,NA,NA,NA,NA,NA,NA,NA,NA,1,0
6,"hard","prediction","learning",38,"learning_control_trial_seq",2,"a",2,2,"a",2,"a",2,1222,0,"2a2",NA,NA,NA,NA,NA,NA,NA,NA,NA,NA,NA,0,0
6,"hard","prediction","learning",39,"learning_control_trial_seq",2,"a",2,2,"a",2,"a",2,739,0,"2a2",NA,NA,NA,NA,NA,NA,NA,NA,NA,NA,NA,1,0
6,"hard","prediction","learning",40,"learning_control_trial_seq",2,"b",1,2,"a",2,"b",1,789,0,"2b1",NA,NA,NA,NA,NA,NA,NA,NA,NA,NA,NA,1,0
6,"hard","prediction","learning",41,"learning_control_trial_seq",1,"b",3,2,"b",1,"b",3,472,0,"1b3",NA,NA,NA,NA,NA,NA,NA,NA,NA,NA,NA,1,0
6,"hard","prediction","learning",42,"learning_control_trial_seq",3,"b",2,1,"b",3,"b",2,555,0,"3b2",NA,NA,NA,NA,NA,NA,NA,NA,NA,NA,NA,1,0
6,"hard","prediction","learning",43,"learning_control_trial_seq",2,"b",1,3,"b",2,"b",1,489,0,"2b1",NA,NA,NA,NA,NA,NA,NA,NA,NA,NA,NA,1,0
6,"hard","prediction","learning",44,"learning_control_trial_seq",1,"b",3,2,"b",1,"b",3,739,0,"1b3",NA,NA,NA,NA,NA,NA,NA,NA,NA,NA,NA,1,0
6,"hard","prediction","learning",45,"learning_control_trial_seq",3,"b",3,1,"b",3,"b",3,639,0,"3b3",NA,NA,NA,NA,NA,NA,NA,NA,NA,NA,NA,1,0
6,"hard","prediction","test",46,NA,NA,NA,NA,3,"a",NA,"a",NA,3023,0,"hard_p_hid_3aa03","hidden","0","3","3","0",FALSE,0,0.4,NA,NA,NA,0,0
6,"hard","prediction","test",47,NA,NA,NA,NA,0,"b",3,"a",NA,2122,0,"hard_p_vis_0b3a21","visible","2","1","2","2",TRUE,0.6,0,NA,NA,NA,0,0
6,"hard","prediction","test",48,NA,NA,NA,NA,2,"a",NA,"a",NA,806,0,"hard_p_hid_2aa23","hidden","2","3","2","2",TRUE,1,0,NA,NA,NA,1,1
6,"hard","prediction","test",49,NA,NA,NA,NA,3,"a",NA,"b",NA,3605,0,"hard_p_hid_3ab23","hidden","2","3","3","2",FALSE,0,0.4,NA,NA,NA,0,0
6,"hard","prediction","test",50,NA,NA,NA,NA,1,"a",0,"a",NA,1356,0,"hard_p_vis_1a0a30","visible","3","0","3","3",TRUE,1,0,NA,NA,NA,0,0
6,"hard","prediction","test",51,NA,NA,NA,NA,3,"b",NA,"b",NA,889,0,"hard_p_hid_3bb13","hidden","1","3","1","3",FALSE,0.36,0.16,NA,NA,NA,1,1
6,"hard","prediction","test",52,NA,NA,NA,NA,1,"a",NA,"a",NA,3106,0,"hard_p_hid_1aa32","hidden","3","2","3","3",TRUE,0.4,0,NA,NA,NA,0,0
6,"hard","prediction","test",53,NA,NA,NA,NA,1,"b",NA,"a",NA,3038,0,"hard_p_hid_1ba32","hidden","3","2","2","2",TRUE,0,0.24,NA,NA,NA,0,0
6,"hard","prediction","test",54,NA,NA,NA,NA,0,"a",3,"a",NA,2956,0,"hard_p_vis_0a3a30","visible","3","0","0","3",FALSE,0,0.4,NA,NA,NA,0,0
6,"hard","prediction","test",55,NA,NA,NA,NA,2,"b",NA,"b",NA,1756,0,"hard_p_hid_2bb13","hidden","1","3","3","1",FALSE,0.36,0.64,NA,NA,NA,0,0
6,"hard","prediction","test",56,NA,NA,NA,NA,2,"b",1,"a",NA,2339,0,"hard_p_vis_2b1a31","visible","3","1","1","3",FALSE,0,0.6,NA,NA,NA,0,0
6,"hard","prediction","test",57,NA,NA,NA,NA,2,"a",NA,"b",NA,2589,0,"hard_p_hid_2ab12","hidden","1","2","1","1",TRUE,0.6,0,NA,NA,NA,0,0
6,"hard","prediction","test",58,NA,NA,NA,NA,0,"a",NA,"a",NA,906,0,"hard_p_hid_0aa10","hidden","1","0","0","0",TRUE,0,0.4,NA,NA,NA,1,1
6,"hard","prediction","test",59,NA,NA,NA,NA,3,"a",0,"b",NA,4939,0,"hard_p_vis_3a0b30","visible","3","0","3","0",FALSE,1,0,NA,NA,NA,0,0
6,"hard","prediction","test",60,NA,NA,NA,NA,3,"b",2,"a",NA,1239,0,"hard_p_vis_3b2a12","visible","1","2","2","1",FALSE,0,1,NA,NA,NA,0,0
6,"hard","prediction","test",61,NA,NA,NA,NA,2,"b",1,"b",NA,3256,0,"hard_p_vis_2b1b10","visible","1","0","1","1",TRUE,0.6,0,NA,NA,NA,0,0
6,"hard","prediction","test",62,NA,NA,NA,NA,1,"b",NA,"a",NA,10205,0,"hard_p_hid_1ba30","hidden","3","0","0","3",FALSE,0,0.4,NA,NA,NA,0,0
6,"hard","prediction","test",63,NA,NA,NA,NA,0,"a",3,"b",NA,2055,0,"hard_p_vis_0a3b21","visible","2","1","2","1",FALSE,0.6,0,NA,NA,NA,0,0
6,"hard","prediction","test",64,NA,NA,NA,NA,2,"a",2,"b",NA,5289,0,"hard_p_vis_2a2b03","visible","0","3","0","0",TRUE,0.4,0,NA,NA,NA,0,0
6,"hard","prediction","test",65,NA,NA,NA,NA,1,"b",3,"b",NA,6389,0,"hard_p_vis_1b3b30","visible","3","0","3","3",TRUE,0.4,0,NA,NA,NA,0,0
7,"easy","prediction","learning",2,"trial_1_seq",3,"a",0,NA,NA,3,"a",0,3513,0,"3a0",NA,NA,NA,NA,NA,NA,NA,NA,NA,NA,NA,0,0
7,"easy","prediction","learning",3,"trial_2_seq",0,"a",2,3,"a",0,"a",2,1914,0,"0a2",NA,NA,NA,NA,NA,NA,NA,NA,NA,NA,NA,0,0
7,"easy","prediction","learning",4,"learning_control_trial_seq",2,"b",2,0,"a",2,"b",2,637,0,"2b2",NA,NA,NA,NA,NA,NA,NA,NA,NA,NA,NA,1,0
7,"easy","prediction","learning",5,"learning_control_trial_seq",2,"a",3,2,"b",2,"a",3,1485,0,"2a3",NA,NA,NA,NA,NA,NA,NA,NA,NA,NA,NA,0,0
7,"easy","prediction","learning",6,"learning_control_trial_seq",3,"b",3,2,"a",3,"b",3,1109,0,"3b3",NA,NA,NA,NA,NA,NA,NA,NA,NA,NA,NA,0,0
7,"easy","prediction","learning",7,"learning_control_trial_seq",3,"b",3,3,"b",3,"b",3,1221,0,"3b3",NA,NA,NA,NA,NA,NA,NA,NA,NA,NA,NA,0,0
7,"easy","prediction","learning",8,"learning_control_trial_seq",3,"a",1,3,"b",3,"a",1,1235,0,"3a1",NA,NA,NA,NA,NA,NA,NA,NA,NA,NA,NA,0,0
7,"easy","prediction","learning",9,"learning_control_trial_seq",1,"a",0,3,"a",1,"a",0,771,0,"1a0",NA,NA,NA,NA,NA,NA,NA,NA,NA,NA,NA,1,0
7,"easy","prediction","learning",10,"learning_control_trial_seq",0,"a",2,1,"a",0,"a",2,752,0,"0a2",NA,NA,NA,NA,NA,NA,NA,NA,NA,NA,NA,1,0
7,"easy","prediction","learning",11,"learning_control_trial_seq",2,"a",0,0,"a",2,"a",0,622,0,"2a0",NA,NA,NA,NA,NA,NA,NA,NA,NA,NA,NA,1,0
7,"easy","prediction","learning",12,"learning_control_trial_seq",0,"a",2,2,"a",0,"a",2,626,0,"0a2",NA,NA,NA,NA,NA,NA,NA,NA,NA,NA,NA,1,0
7,"easy","prediction","learning",13,"learning_control_trial_seq",2,"b",2,0,"a",2,"b",2,2071,0,"2b2",NA,NA,NA,NA,NA,NA,NA,NA,NA,NA,NA,0,0
7,"easy","prediction","learning",14,"learning_control_trial_seq",2,"b",2,2,"b",2,"b",2,1043,0,"2b2",NA,NA,NA,NA,NA,NA,NA,NA,NA,NA,NA,0,0
7,"easy","prediction","learning",15,"learning_control_trial_seq",2,"b",2,2,"b",2,"b",2,692,0,"2b2",NA,NA,NA,NA,NA,NA,NA,NA,NA,NA,NA,1,0
7,"easy","prediction","learning",16,"learning_control_trial_seq",2,"a",0,2,"b",2,"a",0,484,0,"2a0",NA,NA,NA,NA,NA,NA,NA,NA,NA,NA,NA,1,0
7,"easy","prediction","learning",17,"learning_control_trial_seq",0,"a",2,2,"a",0,"a",2,646,0,"0a2",NA,NA,NA,NA,NA,NA,NA,NA,NA,NA,NA,1,0
7,"easy","prediction","learning",18,"learning_control_trial_seq",2,"b",2,0,"a",2,"b",2,1083,0,"2b2",NA,NA,NA,NA,NA,NA,NA,NA,NA,NA,NA,0,0
7,"easy","prediction","learning",19,"learning_control_trial_seq",2,"a",0,2,"b",2,"a",0,1058,0,"2a0",NA,NA,NA,NA,NA,NA,NA,NA,NA,NA,NA,0,0
7,"easy","prediction","learning",20,"learning_control_trial_seq",0,"a",2,2,"a",0,"a",2,717,0,"0a2",NA,NA,NA,NA,NA,NA,NA,NA,NA,NA,NA,1,0
7,"easy","prediction","learning",21,"learning_control_trial_seq",2,"a",3,0,"a",2,"a",3,932,0,"2a3",NA,NA,NA,NA,NA,NA,NA,NA,NA,NA,NA,1,0
7,"easy","prediction","learning",22,"learning_control_trial_seq",3,"b",3,2,"a",3,"b",3,1305,0,"3b3",NA,NA,NA,NA,NA,NA,NA,NA,NA,NA,NA,0,0
7,"easy","prediction","learning",23,"learning_control_trial_seq",3,"a",1,3,"b",3,"a",1,1117,0,"3a1",NA,NA,NA,NA,NA,NA,NA,NA,NA,NA,NA,0,0
7,"easy","prediction","learning",24,"learning_control_trial_seq",1,"a",0,3,"a",1,"a",0,536,0,"1a0",NA,NA,NA,NA,NA,NA,NA,NA,NA,NA,NA,1,0
7,"easy","prediction","learning",25,"learning_control_trial_seq",0,"a",2,1,"a",0,"a",2,727,0,"0a2",NA,NA,NA,NA,NA,NA,NA,NA,NA,NA,NA,1,0
7,"easy","prediction","learning",26,"learning_control_trial_seq",2,"a",0,0,"a",2,"a",0,797,0,"2a0",NA,NA,NA,NA,NA,NA,NA,NA,NA,NA,NA,1,0
7,"easy","prediction","learning",27,"learning_control_trial_seq",0,"b",2,2,"a",0,"b",2,482,0,"0b2",NA,NA,NA,NA,NA,NA,NA,NA,NA,NA,NA,1,0
7,"easy","prediction","learning",28,"learning_control_trial_seq",2,"a",0,0,"b",2,"a",0,1605,0,"2a0",NA,NA,NA,NA,NA,NA,NA,NA,NA,NA,NA,0,0
7,"easy","prediction","learning",29,"learning_control_trial_seq",0,"a",2,2,"a",0,"a",2,106,1,"0a2",NA,NA,NA,NA,NA,NA,NA,NA,NA,NA,NA,1,1
7,"easy","prediction","learning",30,"learning_control_trial_seq",2,"a",0,0,"a",2,"a",0,457,0,"2a0",NA,NA,NA,NA,NA,NA,NA,NA,NA,NA,NA,1,0
7,"easy","prediction","learning",31,"learning_control_trial_seq",0,"b",2,2,"a",0,"b",2,682,0,"0b2",NA,NA,NA,NA,NA,NA,NA,NA,NA,NA,NA,1,0
7,"easy","prediction","learning",32,"learning_control_trial_seq",2,"a",3,0,"b",2,"a",3,869,0,"2a3",NA,NA,NA,NA,NA,NA,NA,NA,NA,NA,NA,1,0
7,"easy","prediction","learning",33,"learning_control_trial_seq",3,"b",3,2,"a",3,"b",3,1347,0,"3b3",NA,NA,NA,NA,NA,NA,NA,NA,NA,NA,NA,0,0
7,"easy","prediction","learning",34,"learning_control_trial_seq",3,"a",1,3,"b",3,"a",1,586,0,"3a1",NA,NA,NA,NA,NA,NA,NA,NA,NA,NA,NA,1,0
7,"easy","prediction","learning",35,"learning_control_trial_seq",1,"b",0,3,"a",1,"b",0,458,0,"1b0",NA,NA,NA,NA,NA,NA,NA,NA,NA,NA,NA,1,0
7,"easy","prediction","learning",36,"learning_control_trial_seq",0,"a",2,1,"b",0,"a",2,843,0,"0a2",NA,NA,NA,NA,NA,NA,NA,NA,NA,NA,NA,1,0
7,"easy","prediction","learning",37,"learning_control_trial_seq",2,"a",3,0,"a",2,"a",3,573,0,"2a3",NA,NA,NA,NA,NA,NA,NA,NA,NA,NA,NA,1,0
7,"easy","prediction","learning",38,"learning_control_trial_seq",3,"a",0,2,"a",3,"a",0,849,0,"3a0",NA,NA,NA,NA,NA,NA,NA,NA,NA,NA,NA,1,0
7,"easy","prediction","learning",39,"learning_control_trial_seq",0,"a",2,3,"a",0,"a",2,1043,0,"0a2",NA,NA,NA,NA,NA,NA,NA,NA,NA,NA,NA,0,0
7,"easy","prediction","learning",40,"learning_control_trial_seq",2,"a",0,0,"a",2,"a",0,708,0,"2a0",NA,NA,NA,NA,NA,NA,NA,NA,NA,NA,NA,1,0
7,"easy","prediction","learning",41,"learning_control_trial_seq",0,"b",2,2,"a",0,"b",2,763,0,"0b2",NA,NA,NA,NA,NA,NA,NA,NA,NA,NA,NA,1,0
7,"easy","prediction","learning",42,"learning_control_trial_seq",2,"a",3,0,"b",2,"a",3,672,0,"2a3",NA,NA,NA,NA,NA,NA,NA,NA,NA,NA,NA,1,0
7,"easy","prediction","learning",43,"learning_control_trial_seq",3,"a",0,2,"a",3,"a",0,665,0,"3a0",NA,NA,NA,NA,NA,NA,NA,NA,NA,NA,NA,1,0
7,"easy","prediction","learning",44,"learning_control_trial_seq",0,"a",2,3,"a",0,"a",2,1026,0,"0a2",NA,NA,NA,NA,NA,NA,NA,NA,NA,NA,NA,0,0
7,"easy","prediction","learning",45,"learning_control_trial_seq",2,"a",3,0,"a",2,"a",3,359,0,"2a3",NA,NA,NA,NA,NA,NA,NA,NA,NA,NA,NA,1,0
7,"easy","prediction","test",46,NA,NA,NA,NA,3,"b",NA,"a",NA,2486,0,"easy_p_hid_3ba31","hidden","3","1","1","3",FALSE,0,0.6,NA,NA,NA,0,0
7,"easy","prediction","test",47,NA,NA,NA,NA,3,"a",NA,"a",NA,3159,0,"easy_p_hid_3aa21","hidden","2","1","2","2",TRUE,0.4,0,NA,NA,NA,0,0
7,"easy","prediction","test",48,NA,NA,NA,NA,1,"a",0,"a",NA,1151,0,"easy_p_vis_1a0a20","visible","2","0","2","0",FALSE,1,0,NA,NA,NA,0,0
7,"easy","prediction","test",49,NA,NA,NA,NA,1,"b",NA,"a",NA,4351,0,"easy_p_hid_1ba21","hidden","2","1","2","2",TRUE,1,0,NA,NA,NA,0,0
7,"easy","prediction","test",50,NA,NA,NA,NA,2,"b",NA,"a",NA,1860,0,"easy_p_hid_2ba13","hidden","1","3","3","3",TRUE,0,0.4,NA,NA,NA,0,0
7,"easy","prediction","test",51,NA,NA,NA,NA,3,"b",3,"b",NA,956,0,"easy_p_vis_3b3b13","visible","1","3","3","3",TRUE,0,1,NA,NA,NA,1,1
7,"easy","prediction","test",52,NA,NA,NA,NA,2,"b",2,"a",NA,1322,0,"easy_p_vis_2b2a13","visible","1","3","3","3",TRUE,0,0.4,NA,NA,NA,0,0
7,"easy","prediction","test",53,NA,NA,NA,NA,3,"a",NA,"b",NA,795,0,"easy_p_hid_3ab21","hidden","2","1","2","2",TRUE,0.4,0,NA,NA,NA,1,1
7,"easy","prediction","test",54,NA,NA,NA,NA,0,"b",2,"b",NA,2560,0,"easy_p_vis_0b2b23","visible","2","3","2","2",TRUE,1,0,NA,NA,NA,0,0
7,"easy","prediction","test",55,NA,NA,NA,NA,2,"a",NA,"b",NA,1427,0,"easy_p_hid_2ab13","hidden","1","3","3","3",TRUE,0,0.4,NA,NA,NA,0,0
7,"easy","prediction","test",56,NA,NA,NA,NA,1,"b",0,"b",NA,1791,0,"easy_p_vis_1b0b21","visible","2","1","2","1",FALSE,1,0,NA,NA,NA,0,0
7,"easy","prediction","test",57,NA,NA,NA,NA,0,"b",NA,"a",NA,1617,0,"easy_p_hid_0ba30","hidden","3","0","0","3",FALSE,0.4,0.6,NA,NA,NA,0,0
7,"easy","prediction","test",58,NA,NA,NA,NA,2,"a",NA,"b",NA,2341,0,"easy_p_hid_2ab03","hidden","0","3","3","3",TRUE,0,0.4,NA,NA,NA,0,0
7,"easy","prediction","test",59,NA,NA,NA,NA,3,"a",1,"a",NA,979,0,"easy_p_vis_3a1a01","visible","0","1","0","1",FALSE,1,0,NA,NA,NA,1,1
7,"easy","prediction","test",60,NA,NA,NA,NA,3,"b",3,"a",NA,584,0,"easy_p_vis_3b3a13","visible","1","3","1","3",FALSE,0.6,0,NA,NA,NA,1,1
7,"easy","prediction","test",61,NA,NA,NA,NA,3,"a",1,"b",NA,4901,0,"easy_p_vis_3a1b30","visible","3","0","0","3",FALSE,0,1,NA,NA,NA,0,0
7,"easy","prediction","test",62,NA,NA,NA,NA,2,"a",3,"a",NA,1244,0,"easy_p_vis_2a3a03","visible","0","3","0","3",FALSE,0.4,0,NA,NA,NA,0,0
7,"easy","prediction","test",63,NA,NA,NA,NA,2,"a",3,"a",NA,1466,0,"easy_p_vis_2a3a31","visible","3","1","1","3",FALSE,0,0.6,NA,NA,NA,0,0
7,"easy","prediction","test",64,NA,NA,NA,NA,2,"a",NA,"a",NA,1773,0,"easy_p_hid_2aa31","hidden","3","1","1","1",TRUE,0,0.24,NA,NA,NA,0,0
7,"easy","prediction","test",65,NA,NA,NA,NA,0,"a",NA,"a",NA,890,0,"easy_p_hid_0aa10","hidden","1","0","0","0",TRUE,0,0.6,NA,NA,NA,1,1
8,"easy","prediction","learning",2,"trial_1_seq",3,"b",3,NA,NA,3,"b",3,2039,0,"3b3",NA,NA,NA,NA,NA,NA,NA,NA,NA,NA,NA,0,0
8,"easy","prediction","learning",3,"trial_2_seq",3,"b",3,3,"b",3,"b",3,2381,0,"3b3",NA,NA,NA,NA,NA,NA,NA,NA,NA,NA,NA,0,0
8,"easy","prediction","learning",4,"learning_control_trial_seq",3,"a",1,3,"b",3,"a",1,1004,0,"3a1",NA,NA,NA,NA,NA,NA,NA,NA,NA,NA,NA,0,0
8,"easy","prediction","learning",5,"learning_control_trial_seq",1,"a",0,3,"a",1,"a",0,1560,0,"1a0",NA,NA,NA,NA,NA,NA,NA,NA,NA,NA,NA,0,0
8,"easy","prediction","learning",6,"learning_control_trial_seq",0,"a",2,1,"a",0,"a",2,2123,0,"0a2",NA,NA,NA,NA,NA,NA,NA,NA,NA,NA,NA,0,0
8,"easy","prediction","learning",7,"learning_control_trial_seq",2,"a",3,0,"a",2,"a",3,1023,0,"2a3",NA,NA,NA,NA,NA,NA,NA,NA,NA,NA,NA,0,0
8,"easy","prediction","learning",8,"learning_control_trial_seq",3,"a",1,2,"a",3,"a",1,806,0,"3a1",NA,NA,NA,NA,NA,NA,NA,NA,NA,NA,NA,1,0
8,"easy","prediction","learning",9,"learning_control_trial_seq",1,"a",0,3,"a",1,"a",0,1159,0,"1a0",NA,NA,NA,NA,NA,NA,NA,NA,NA,NA,NA,0,0
8,"easy","prediction","learning",10,"learning_control_trial_seq",0,"a",2,1,"a",0,"a",2,1081,0,"0a2",NA,NA,NA,NA,NA,NA,NA,NA,NA,NA,NA,0,0
8,"easy","prediction","learning",11,"learning_control_trial_seq",2,"b",2,0,"a",2,"b",2,778,0,"2b2",NA,NA,NA,NA,NA,NA,NA,NA,NA,NA,NA,1,0
8,"easy","prediction","learning",12,"learning_control_trial_seq",2,"b",2,2,"b",2,"b",2,582,0,"2b2",NA,NA,NA,NA,NA,NA,NA,NA,NA,NA,NA,1,0
8,"easy","prediction","learning",13,"learning_control_trial_seq",2,"a",3,2,"b",2,"a",3,2060,0,"2a3",NA,NA,NA,NA,NA,NA,NA,NA,NA,NA,NA,0,0
8,"easy","prediction","learning",14,"learning_control_trial_seq",3,"a",0,2,"a",3,"a",0,916,0,"3a0",NA,NA,NA,NA,NA,NA,NA,NA,NA,NA,NA,1,0
8,"easy","prediction","learning",15,"learning_control_trial_seq",0,"a",2,3,"a",0,"a",2,2687,0,"0a2",NA,NA,NA,NA,NA,NA,NA,NA,NA,NA,NA,0,0
8,"easy","prediction","learning",16,"learning_control_trial_seq",2,"a",0,0,"a",2,"a",0,567,0,"2a0",NA,NA,NA,NA,NA,NA,NA,NA,NA,NA,NA,1,0
8,"easy","prediction","learning",17,"learning_control_trial_seq",0,"b",2,2,"a",0,"b",2,2996,0,"0b2",NA,NA,NA,NA,NA,NA,NA,NA,NA,NA,NA,0,0
8,"easy","prediction","learning",18,"learning_control_trial_seq",2,"b",2,0,"b",2,"b",2,2132,0,"2b2",NA,NA,NA,NA,NA,NA,NA,NA,NA,NA,NA,0,0
8,"easy","prediction","learning",19,"learning_control_trial_seq",2,"a",0,2,"b",2,"a",0,1631,0,"2a0",NA,NA,NA,NA,NA,NA,NA,NA,NA,NA,NA,0,0
8,"easy","prediction","learning",20,"learning_control_trial_seq",0,"b",2,2,"a",0,"b",2,1022,0,"0b2",NA,NA,NA,NA,NA,NA,NA,NA,NA,NA,NA,0,0
8,"easy","prediction","learning",21,"learning_control_trial_seq",2,"a",0,0,"b",2,"a",0,793,0,"2a0",NA,NA,NA,NA,NA,NA,NA,NA,NA,NA,NA,1,0
8,"easy","prediction","learning",22,"learning_control_trial_seq",0,"a",2,2,"a",0,"a",2,508,0,"0a2",NA,NA,NA,NA,NA,NA,NA,NA,NA,NA,NA,1,0
8,"easy","prediction","learning",23,"learning_control_trial_seq",2,"a",0,0,"a",2,"a",0,989,0,"2a0",NA,NA,NA,NA,NA,NA,NA,NA,NA,NA,NA,1,0
8,"easy","prediction","learning",24,"learning_control_trial_seq",0,"a",2,2,"a",0,"a",2,980,0,"0a2",NA,NA,NA,NA,NA,NA,NA,NA,NA,NA,NA,1,0
8,"easy","prediction","learning",25,"learning_control_trial_seq",2,"a",0,0,"a",2,"a",0,476,0,"2a0",NA,NA,NA,NA,NA,NA,NA,NA,NA,NA,NA,1,0
8,"easy","prediction","learning",26,"learning_control_trial_seq",0,"b",2,2,"a",0,"b",2,1476,0,"0b2",NA,NA,NA,NA,NA,NA,NA,NA,NA,NA,NA,0,0
8,"easy","prediction","learning",27,"learning_control_trial_seq",2,"b",2,0,"b",2,"b",2,558,0,"2b2",NA,NA,NA,NA,NA,NA,NA,NA,NA,NA,NA,1,0
8,"easy","prediction","learning",28,"learning_control_trial_seq",2,"a",3,2,"b",2,"a",3,2019,0,"2a3",NA,NA,NA,NA,NA,NA,NA,NA,NA,NA,NA,0,0
8,"easy","prediction","learning",29,"learning_control_trial_seq",3,"b",3,2,"a",3,"b",3,646,0,"3b3",NA,NA,NA,NA,NA,NA,NA,NA,NA,NA,NA,1,0
8,"easy","prediction","learning",30,"learning_control_trial_seq",3,"b",3,3,"b",3,"b",3,576,0,"3b3",NA,NA,NA,NA,NA,NA,NA,NA,NA,NA,NA,1,0
8,"easy","prediction","learning",31,"learning_control_trial_seq",3,"a",1,3,"b",3,"a",1,1676,0,"3a1",NA,NA,NA,NA,NA,NA,NA,NA,NA,NA,NA,0,0
8,"easy","prediction","learning",32,"learning_control_trial_seq",1,"b",0,3,"a",1,"b",0,1984,0,"1b0",NA,NA,NA,NA,NA,NA,NA,NA,NA,NA,NA,0,0
8,"easy","prediction","learning",33,"learning_control_trial_seq",0,"a",2,1,"b",0,"a",2,1458,0,"0a2",NA,NA,NA,NA,NA,NA,NA,NA,NA,NA,NA,0,0
8,"easy","prediction","learning",34,"learning_control_trial_seq",2,"b",2,0,"a",2,"b",2,2104,0,"2b2",NA,NA,NA,NA,NA,NA,NA,NA,NA,NA,NA,0,0
8,"easy","prediction","learning",35,"learning_control_trial_seq",2,"a",0,2,"b",2,"a",0,1414,0,"2a0",NA,NA,NA,NA,NA,NA,NA,NA,NA,NA,NA,0,0
8,"easy","prediction","learning",36,"learning_control_trial_seq",0,"a",2,2,"a",0,"a",2,2212,0,"0a2",NA,NA,NA,NA,NA,NA,NA,NA,NA,NA,NA,0,0
8,"easy","prediction","learning",37,"learning_control_trial_seq",2,"a",3,0,"a",2,"a",3,652,0,"2a3",NA,NA,NA,NA,NA,NA,NA,NA,NA,NA,NA,1,0
8,"easy","prediction","learning",38,"learning_control_trial_seq",3,"a",0,2,"a",3,"a",0,776,0,"3a0",NA,NA,NA,NA,NA,NA,NA,NA,NA,NA,NA,1,0
8,"easy","prediction","learning",39,"learning_control_trial_seq",0,"a",2,3,"a",0,"a",2,573,0,"0a2",NA,NA,NA,NA,NA,NA,NA,NA,NA,NA,NA,1,0
8,"easy","prediction","learning",40,"learning_control_trial_seq",2,"a",3,0,"a",2,"a",3,443,0,"2a3",NA,NA,NA,NA,NA,NA,NA,NA,NA,NA,NA,1,0
8,"easy","prediction","learning",41,"learning_control_trial_seq",3,"a",1,2,"a",3,"a",1,2136,0,"3a1",NA,NA,NA,NA,NA,NA,NA,NA,NA,NA,NA,0,0
8,"easy","prediction","learning",42,"learning_control_trial_seq",1,"b",0,3,"a",1,"b",0,1348,0,"1b0",NA,NA,NA,NA,NA,NA,NA,NA,NA,NA,NA,0,0
8,"easy","prediction","learning",43,"learning_control_trial_seq",0,"b",2,1,"b",0,"b",2,570,0,"0b2",NA,NA,NA,NA,NA,NA,NA,NA,NA,NA,NA,1,0
8,"easy","prediction","learning",44,"learning_control_trial_seq",2,"b",2,0,"b",2,"b",2,398,0,"2b2",NA,NA,NA,NA,NA,NA,NA,NA,NA,NA,NA,1,0
8,"easy","prediction","learning",45,"learning_control_trial_seq",2,"b",2,2,"b",2,"b",2,621,0,"2b2",NA,NA,NA,NA,NA,NA,NA,NA,NA,NA,NA,1,0
8,"easy","prediction","test",46,NA,NA,NA,NA,3,"a",NA,"b",NA,8294,0,"easy_p_hid_3ab21","hidden","2","1","2","2",TRUE,0.4,0,NA,NA,NA,0,0
8,"easy","prediction","test",47,NA,NA,NA,NA,1,"a",0,"a",NA,4545,0,"easy_p_vis_1a0a20","visible","2","0","2","2",TRUE,1,0,NA,NA,NA,0,0
8,"easy","prediction","test",48,NA,NA,NA,NA,2,"a",NA,"a",NA,7698,0,"easy_p_hid_2aa31","hidden","3","1","1","3",FALSE,0,0.24,NA,NA,NA,0,0
8,"easy","prediction","test",49,NA,NA,NA,NA,3,"b",3,"b",NA,2765,0,"easy_p_vis_3b3b13","visible","1","3","3","3",TRUE,0,1,NA,NA,NA,0,0
8,"easy","prediction","test",50,NA,NA,NA,NA,0,"a",NA,"a",NA,5773,0,"easy_p_hid_0aa10","hidden","1","0","0","0",TRUE,0,0.6,NA,NA,NA,0,0
8,"easy","prediction","test",51,NA,NA,NA,NA,0,"b",NA,"a",NA,3900,0,"easy_p_hid_0ba30","hidden","3","0","0","3",FALSE,0.4,0.6,NA,NA,NA,0,0
8,"easy","prediction","test",52,NA,NA,NA,NA,1,"b",0,"b",NA,4110,0,"easy_p_vis_1b0b21","visible","2","1","2","2",TRUE,1,0,NA,NA,NA,0,0
8,"easy","prediction","test",53,NA,NA,NA,NA,2,"a",3,"a",NA,9166,0,"easy_p_vis_2a3a31","visible","3","1","1","1",TRUE,0,0.6,NA,NA,NA,0,0
8,"easy","prediction","test",54,NA,NA,NA,NA,3,"b",3,"a",NA,3217,0,"easy_p_vis_3b3a13","visible","1","3","1","1",TRUE,0.6,0,NA,NA,NA,0,0
8,"easy","prediction","test",55,NA,NA,NA,NA,3,"b",NA,"a",NA,1294,0,"easy_p_hid_3ba31","hidden","3","1","1","1",TRUE,0,0.6,NA,NA,NA,0,0
8,"easy","prediction","test",56,NA,NA,NA,NA,3,"a",NA,"a",NA,1679,0,"easy_p_hid_3aa21","hidden","2","1","2","2",TRUE,0.4,0,NA,NA,NA,0,0
8,"easy","prediction","test",57,NA,NA,NA,NA,2,"a",NA,"b",NA,6392,0,"easy_p_hid_2ab03","hidden","0","3","3","3",TRUE,0,0.4,NA,NA,NA,0,0
8,"easy","prediction","test",58,NA,NA,NA,NA,3,"a",1,"a",NA,2961,0,"easy_p_vis_3a1a01","visible","0","1","0","0",TRUE,1,0,NA,NA,NA,0,0
8,"easy","prediction","test",59,NA,NA,NA,NA,2,"a",3,"a",NA,6704,0,"easy_p_vis_2a3a03","visible","0","3","0","0",TRUE,0.4,0,NA,NA,NA,0,0
8,"easy","prediction","test",60,NA,NA,NA,NA,1,"b",NA,"a",NA,8470,0,"easy_p_hid_1ba21","hidden","2","1","2","2",TRUE,1,0,NA,NA,NA,0,0
8,"easy","prediction","test",61,NA,NA,NA,NA,0,"b",2,"b",NA,7580,0,"easy_p_vis_0b2b23","visible","2","3","2","2",TRUE,1,0,NA,NA,NA,0,0
8,"easy","prediction","test",62,NA,NA,NA,NA,3,"a",1,"b",NA,4291,0,"easy_p_vis_3a1b30","visible","3","0","0","3",FALSE,0,1,NA,NA,NA,0,0
8,"easy","prediction","test",63,NA,NA,NA,NA,2,"b",2,"a",NA,3830,0,"easy_p_vis_2b2a13","visible","1","3","3","3",TRUE,0,0.4,NA,NA,NA,0,0
8,"easy","prediction","test",64,NA,NA,NA,NA,2,"a",NA,"b",NA,5182,0,"easy_p_hid_2ab13","hidden","1","3","3","3",TRUE,0,0.4,NA,NA,NA,0,0
8,"easy","prediction","test",65,NA,NA,NA,NA,2,"b",NA,"a",NA,5133,0,"easy_p_hid_2ba13","hidden","1","3","3","3",TRUE,0,0.4,NA,NA,NA,0,0
9,"easy","prediction","learning",2,"trial_1_seq",3,"a",1,NA,NA,3,"a",1,1632,0,"3a1",NA,NA,NA,NA,NA,NA,NA,NA,NA,NA,NA,0,0
9,"easy","prediction","learning",3,"trial_2_seq",1,"a",0,3,"a",1,"a",0,2116,0,"1a0",NA,NA,NA,NA,NA,NA,NA,NA,NA,NA,NA,0,0
9,"easy","prediction","learning",4,"learning_control_trial_seq",0,"b",2,1,"a",0,"b",2,1153,0,"0b2",NA,NA,NA,NA,NA,NA,NA,NA,NA,NA,NA,0,0
9,"easy","prediction","learning",5,"learning_control_trial_seq",2,"b",2,0,"b",2,"b",2,1068,0,"2b2",NA,NA,NA,NA,NA,NA,NA,NA,NA,NA,NA,0,0
9,"easy","prediction","learning",6,"learning_control_trial_seq",2,"b",2,2,"b",2,"b",2,1019,0,"2b2",NA,NA,NA,NA,NA,NA,NA,NA,NA,NA,NA,0,0
9,"easy","prediction","learning",7,"learning_control_trial_seq",2,"b",2,2,"b",2,"b",2,691,0,"2b2",NA,NA,NA,NA,NA,NA,NA,NA,NA,NA,NA,1,0
9,"easy","prediction","learning",8,"learning_control_trial_seq",2,"a",0,2,"b",2,"a",0,714,0,"2a0",NA,NA,NA,NA,NA,NA,NA,NA,NA,NA,NA,1,0
9,"easy","prediction","learning",9,"learning_control_trial_seq",0,"a",2,2,"a",0,"a",2,426,0,"0a2",NA,NA,NA,NA,NA,NA,NA,NA,NA,NA,NA,1,0
9,"easy","prediction","learning",10,"learning_control_trial_seq",2,"a",0,0,"a",2,"a",0,459,0,"2a0",NA,NA,NA,NA,NA,NA,NA,NA,NA,NA,NA,1,0
9,"easy","prediction","learning",11,"learning_control_trial_seq",0,"a",2,2,"a",0,"a",2,854,0,"0a2",NA,NA,NA,NA,NA,NA,NA,NA,NA,NA,NA,1,0
9,"easy","prediction","learning",12,"learning_control_trial_seq",2,"b",2,0,"a",2,"b",2,1932,0,"2b2",NA,NA,NA,NA,NA,NA,NA,NA,NA,NA,NA,0,0
9,"easy","prediction","learning",13,"learning_control_trial_seq",2,"a",3,2,"b",2,"a",3,1736,0,"2a3",NA,NA,NA,NA,NA,NA,NA,NA,NA,NA,NA,0,0
9,"easy","prediction","learning",14,"learning_control_trial_seq",3,"a",1,2,"a",3,"a",1,2806,0,"3a1",NA,NA,NA,NA,NA,NA,NA,NA,NA,NA,NA,0,0
9,"easy","prediction","learning",15,"learning_control_trial_seq",1,"a",0,3,"a",1,"a",0,1589,0,"1a0",NA,NA,NA,NA,NA,NA,NA,NA,NA,NA,NA,0,0
9,"easy","prediction","learning",16,"learning_control_trial_seq",0,"a",2,1,"a",0,"a",2,745,0,"0a2",NA,NA,NA,NA,NA,NA,NA,NA,NA,NA,NA,1,0
9,"easy","prediction","learning",17,"learning_control_trial_seq",2,"b",2,0,"a",2,"b",2,1324,0,"2b2",NA,NA,NA,NA,NA,NA,NA,NA,NA,NA,NA,0,0
9,"easy","prediction","learning",18,"learning_control_trial_seq",2,"b",2,2,"b",2,"b",2,1346,0,"2b2",NA,NA,NA,NA,NA,NA,NA,NA,NA,NA,NA,0,0
9,"easy","prediction","learning",19,"learning_control_trial_seq",2,"b",2,2,"b",2,"b",2,524,0,"2b2",NA,NA,NA,NA,NA,NA,NA,NA,NA,NA,NA,1,0
9,"easy","prediction","learning",20,"learning_control_trial_seq",2,"a",3,2,"b",2,"a",3,451,0,"2a3",NA,NA,NA,NA,NA,NA,NA,NA,NA,NA,NA,1,0
9,"easy","prediction","learning",21,"learning_control_trial_seq",3,"a",0,2,"a",3,"a",0,411,0,"3a0",NA,NA,NA,NA,NA,NA,NA,NA,NA,NA,NA,1,0
9,"easy","prediction","learning",22,"learning_control_trial_seq",0,"a",2,3,"a",0,"a",2,700,0,"0a2",NA,NA,NA,NA,NA,NA,NA,NA,NA,NA,NA,1,0
9,"easy","prediction","learning",23,"learning_control_trial_seq",2,"a",0,0,"a",2,"a",0,1494,0,"2a0",NA,NA,NA,NA,NA,NA,NA,NA,NA,NA,NA,0,0
9,"easy","prediction","learning",24,"learning_control_trial_seq",0,"a",2,2,"a",0,"a",2,1769,0,"0a2",NA,NA,NA,NA,NA,NA,NA,NA,NA,NA,NA,0,0
9,"easy","prediction","learning",25,"learning_control_trial_seq",2,"a",0,0,"a",2,"a",0,896,0,"2a0",NA,NA,NA,NA,NA,NA,NA,NA,NA,NA,NA,1,0
9,"easy","prediction","learning",26,"learning_control_trial_seq",0,"a",2,2,"a",0,"a",2,1194,0,"0a2",NA,NA,NA,NA,NA,NA,NA,NA,NA,NA,NA,0,0
9,"easy","prediction","learning",27,"learning_control_trial_seq",2,"b",2,0,"a",2,"b",2,1520,0,"2b2",NA,NA,NA,NA,NA,NA,NA,NA,NA,NA,NA,0,0
9,"easy","prediction","learning",28,"learning_control_trial_seq",2,"b",2,2,"b",2,"b",2,4296,0,"2b2",NA,NA,NA,NA,NA,NA,NA,NA,NA,NA,NA,0,0
9,"easy","prediction","learning",29,"learning_control_trial_seq",2,"b",2,2,"b",2,"b",2,1350,0,"2b2",NA,NA,NA,NA,NA,NA,NA,NA,NA,NA,NA,0,0
9,"easy","prediction","learning",30,"learning_control_trial_seq",2,"a",0,2,"b",2,"a",0,509,0,"2a0",NA,NA,NA,NA,NA,NA,NA,NA,NA,NA,NA,1,0
9,"easy","prediction","learning",31,"learning_control_trial_seq",0,"a",2,2,"a",0,"a",2,698,0,"0a2",NA,NA,NA,NA,NA,NA,NA,NA,NA,NA,NA,1,0
9,"easy","prediction","learning",32,"learning_control_trial_seq",2,"a",3,0,"a",2,"a",3,606,0,"2a3",NA,NA,NA,NA,NA,NA,NA,NA,NA,NA,NA,1,0
9,"easy","prediction","learning",33,"learning_control_trial_seq",3,"a",0,2,"a",3,"a",0,3872,0,"3a0",NA,NA,NA,NA,NA,NA,NA,NA,NA,NA,NA,0,0
9,"easy","prediction","learning",34,"learning_control_trial_seq",0,"a",2,3,"a",0,"a",2,850,0,"0a2",NA,NA,NA,NA,NA,NA,NA,NA,NA,NA,NA,1,0
9,"easy","prediction","learning",35,"learning_control_trial_seq",2,"a",0,0,"a",2,"a",0,641,0,"2a0",NA,NA,NA,NA,NA,NA,NA,NA,NA,NA,NA,1,0
9,"easy","prediction","learning",36,"learning_control_trial_seq",0,"a",2,2,"a",0,"a",2,781,0,"0a2",NA,NA,NA,NA,NA,NA,NA,NA,NA,NA,NA,1,0
9,"easy","prediction","learning",37,"learning_control_trial_seq",2,"b",2,0,"a",2,"b",2,778,0,"2b2",NA,NA,NA,NA,NA,NA,NA,NA,NA,NA,NA,1,0
9,"easy","prediction","learning",38,"learning_control_trial_seq",2,"b",2,2,"b",2,"b",2,618,0,"2b2",NA,NA,NA,NA,NA,NA,NA,NA,NA,NA,NA,1,0
9,"easy","prediction","learning",39,"learning_control_trial_seq",2,"b",2,2,"b",2,"b",2,486,0,"2b2",NA,NA,NA,NA,NA,NA,NA,NA,NA,NA,NA,1,0
9,"easy","prediction","learning",40,"learning_control_trial_seq",2,"b",2,2,"b",2,"b",2,528,0,"2b2",NA,NA,NA,NA,NA,NA,NA,NA,NA,NA,NA,1,0
9,"easy","prediction","learning",41,"learning_control_trial_seq",2,"a",3,2,"b",2,"a",3,406,0,"2a3",NA,NA,NA,NA,NA,NA,NA,NA,NA,NA,NA,1,0
9,"easy","prediction","learning",42,"learning_control_trial_seq",3,"a",1,2,"a",3,"a",1,466,0,"3a1",NA,NA,NA,NA,NA,NA,NA,NA,NA,NA,NA,1,0
9,"easy","prediction","learning",43,"learning_control_trial_seq",1,"a",0,3,"a",1,"a",0,476,0,"1a0",NA,NA,NA,NA,NA,NA,NA,NA,NA,NA,NA,1,0
9,"easy","prediction","learning",44,"learning_control_trial_seq",0,"a",2,1,"a",0,"a",2,1306,0,"0a2",NA,NA,NA,NA,NA,NA,NA,NA,NA,NA,NA,0,0
9,"easy","prediction","learning",45,"learning_control_trial_seq",2,"a",3,0,"a",2,"a",3,1376,0,"2a3",NA,NA,NA,NA,NA,NA,NA,NA,NA,NA,NA,0,0
9,"easy","prediction","test",46,NA,NA,NA,NA,3,"b",3,"a",NA,5103,0,"easy_p_vis_3b3a13","visible","1","3","1","1",TRUE,0.6,0,NA,NA,NA,0,0
9,"easy","prediction","test",47,NA,NA,NA,NA,3,"a",1,"a",NA,4068,0,"easy_p_vis_3a1a01","visible","0","1","0","0",TRUE,1,0,NA,NA,NA,0,0
9,"easy","prediction","test",48,NA,NA,NA,NA,2,"a",NA,"b",NA,4467,0,"easy_p_hid_2ab03","hidden","0","3","3","0",FALSE,0,0.4,NA,NA,NA,0,0
9,"easy","prediction","test",49,NA,NA,NA,NA,3,"a",1,"b",NA,4726,0,"easy_p_vis_3a1b30","visible","3","0","0","0",TRUE,0,1,NA,NA,NA,0,0
9,"easy","prediction","test",50,NA,NA,NA,NA,2,"a",3,"a",NA,3171,0,"easy_p_vis_2a3a31","visible","3","1","1","1",TRUE,0,0.6,NA,NA,NA,0,0
9,"easy","prediction","test",51,NA,NA,NA,NA,1,"b",NA,"a",NA,4429,0,"easy_p_hid_1ba21","hidden","2","1","2","1",FALSE,1,0,NA,NA,NA,0,0
9,"easy","prediction","test",52,NA,NA,NA,NA,2,"a",3,"a",NA,2830,0,"easy_p_vis_2a3a03","visible","0","3","0","0",TRUE,0.4,0,NA,NA,NA,0,0
9,"easy","prediction","test",53,NA,NA,NA,NA,3,"b",NA,"a",NA,5597,0,"easy_p_hid_3ba31","hidden","3","1","1","1",TRUE,0,0.6,NA,NA,NA,0,0
9,"easy","prediction","test",54,NA,NA,NA,NA,2,"a",NA,"b",NA,9912,0,"easy_p_hid_2ab13","hidden","1","3","3","1",FALSE,0,0.4,NA,NA,NA,0,0
9,"easy","prediction","test",55,NA,NA,NA,NA,0,"b",2,"b",NA,8087,0,"easy_p_vis_0b2b23","visible","2","3","2","2",TRUE,1,0,NA,NA,NA,0,0
9,"easy","prediction","test",56,NA,NA,NA,NA,1,"a",0,"a",NA,3736,0,"easy_p_vis_1a0a20","visible","2","0","2","2",TRUE,1,0,NA,NA,NA,0,0
9,"easy","prediction","test",57,NA,NA,NA,NA,2,"b",NA,"a",NA,5955,0,"easy_p_hid_2ba13","hidden","1","3","3","1",FALSE,0,0.4,NA,NA,NA,0,0
9,"easy","prediction","test",58,NA,NA,NA,NA,2,"a",NA,"a",NA,1368,0,"easy_p_hid_2aa31","hidden","3","1","1","1",TRUE,0,0.24,NA,NA,NA,0,0
9,"easy","prediction","test",59,NA,NA,NA,NA,1,"b",0,"b",NA,3138,0,"easy_p_vis_1b0b21","visible","2","1","2","1",FALSE,1,0,NA,NA,NA,0,0
9,"easy","prediction","test",60,NA,NA,NA,NA,3,"b",3,"b",NA,1607,0,"easy_p_vis_3b3b13","visible","1","3","3","3",TRUE,0,1,NA,NA,NA,0,0
9,"easy","prediction","test",61,NA,NA,NA,NA,2,"b",2,"a",NA,2035,0,"easy_p_vis_2b2a13","visible","1","3","3","1",FALSE,0,0.4,NA,NA,NA,0,0
9,"easy","prediction","test",62,NA,NA,NA,NA,3,"a",NA,"a",NA,2621,0,"easy_p_hid_3aa21","hidden","2","1","2","1",FALSE,0.4,0,NA,NA,NA,0,0
9,"easy","prediction","test",63,NA,NA,NA,NA,3,"a",NA,"b",NA,1236,0,"easy_p_hid_3ab21","hidden","2","1","2","2",TRUE,0.4,0,NA,NA,NA,0,0
9,"easy","prediction","test",64,NA,NA,NA,NA,0,"a",NA,"a",NA,1839,0,"easy_p_hid_0aa10","hidden","1","0","0","1",FALSE,0,0.6,NA,NA,NA,0,0
9,"easy","prediction","test",65,NA,NA,NA,NA,0,"b",NA,"a",NA,7150,0,"easy_p_hid_0ba30","hidden","3","0","0","3",FALSE,0.4,0.6,NA,NA,NA,0,0
10,"hard","prediction","learning",2,"trial_1_seq",2,"b",0,NA,NA,2,"b",0,2423,0,"2b0",NA,NA,NA,NA,NA,NA,NA,NA,NA,NA,NA,0,0
10,"hard","prediction","learning",3,"trial_2_seq",0,"b",3,2,"b",0,"b",3,9235,0,"0b3",NA,NA,NA,NA,NA,NA,NA,NA,NA,NA,NA,0,0
10,"hard","prediction","learning",4,"learning_control_trial_seq",3,"b",2,0,"b",3,"b",2,18568,0,"3b2",NA,NA,NA,NA,NA,NA,NA,NA,NA,NA,NA,0,0
10,"hard","prediction","learning",5,"learning_control_trial_seq",2,"b",1,3,"b",2,"b",1,5379,0,"2b1",NA,NA,NA,NA,NA,NA,NA,NA,NA,NA,NA,0,0
10,"hard","prediction","learning",6,"learning_control_trial_seq",1,"b",1,2,"b",1,"b",1,6760,0,"1b1",NA,NA,NA,NA,NA,NA,NA,NA,NA,NA,NA,0,0
10,"hard","prediction","learning",7,"learning_control_trial_seq",1,"b",1,1,"b",1,"b",1,4512,0,"1b1",NA,NA,NA,NA,NA,NA,NA,NA,NA,NA,NA,0,0
10,"hard","prediction","learning",8,"learning_control_trial_seq",1,"a",1,1,"b",1,"a",1,5371,0,"1a1",NA,NA,NA,NA,NA,NA,NA,NA,NA,NA,NA,0,0
10,"hard","prediction","learning",9,"learning_control_trial_seq",1,"a",1,1,"a",1,"a",1,3666,0,"1a1",NA,NA,NA,NA,NA,NA,NA,NA,NA,NA,NA,0,0
10,"hard","prediction","learning",10,"learning_control_trial_seq",1,"b",3,1,"a",1,"b",3,1386,0,"1b3",NA,NA,NA,NA,NA,NA,NA,NA,NA,NA,NA,0,0
10,"hard","prediction","learning",11,"learning_control_trial_seq",3,"b",2,1,"b",3,"b",2,3344,0,"3b2",NA,NA,NA,NA,NA,NA,NA,NA,NA,NA,NA,0,0
10,"hard","prediction","learning",12,"learning_control_trial_seq",2,"b",1,3,"b",2,"b",1,1984,0,"2b1",NA,NA,NA,NA,NA,NA,NA,NA,NA,NA,NA,0,0
10,"hard","prediction","learning",13,"learning_control_trial_seq",1,"b",1,2,"b",1,"b",1,4672,0,"1b1",NA,NA,NA,NA,NA,NA,NA,NA,NA,NA,NA,0,0
10,"hard","prediction","learning",14,"learning_control_trial_seq",1,"b",3,1,"b",1,"b",3,1238,0,"1b3",NA,NA,NA,NA,NA,NA,NA,NA,NA,NA,NA,0,0
10,"hard","prediction","learning",15,"learning_control_trial_seq",3,"b",3,1,"b",3,"b",3,2742,0,"3b3",NA,NA,NA,NA,NA,NA,NA,NA,NA,NA,NA,0,0
10,"hard","prediction","learning",16,"learning_control_trial_seq",3,"b",3,3,"b",3,"b",3,1404,0,"3b3",NA,NA,NA,NA,NA,NA,NA,NA,NA,NA,NA,0,0
10,"hard","prediction","learning",17,"learning_control_trial_seq",3,"a",2,3,"b",3,"a",2,1103,0,"3a2",NA,NA,NA,NA,NA,NA,NA,NA,NA,NA,NA,0,0
10,"hard","prediction","learning",18,"learning_control_trial_seq",2,"b",0,3,"a",2,"b",0,1144,0,"2b0",NA,NA,NA,NA,NA,NA,NA,NA,NA,NA,NA,0,0
10,"hard","prediction","learning",19,"learning_control_trial_seq",0,"b",3,2,"b",0,"b",3,1550,0,"0b3",NA,NA,NA,NA,NA,NA,NA,NA,NA,NA,NA,0,0
10,"hard","prediction","learning",20,"learning_control_trial_seq",3,"b",2,0,"b",3,"b",2,1843,0,"3b2",NA,NA,NA,NA,NA,NA,NA,NA,NA,NA,NA,0,0
10,"hard","prediction","learning",21,"learning_control_trial_seq",2,"a",2,3,"b",2,"a",2,2190,0,"2a2",NA,NA,NA,NA,NA,NA,NA,NA,NA,NA,NA,0,0
10,"hard","prediction","learning",22,"learning_control_trial_seq",2,"a",2,2,"a",2,"a",2,2074,0,"2a2",NA,NA,NA,NA,NA,NA,NA,NA,NA,NA,NA,0,0
10,"hard","prediction","learning",23,"learning_control_trial_seq",2,"b",1,2,"a",2,"b",1,2030,0,"2b1",NA,NA,NA,NA,NA,NA,NA,NA,NA,NA,NA,0,0
10,"hard","prediction","learning",24,"learning_control_trial_seq",1,"a",0,2,"b",1,"a",0,2176,0,"1a0",NA,NA,NA,NA,NA,NA,NA,NA,NA,NA,NA,0,0
10,"hard","prediction","learning",25,"learning_control_trial_seq",0,"b",3,1,"a",0,"b",3,2640,0,"0b3",NA,NA,NA,NA,NA,NA,NA,NA,NA,NA,NA,0,0
10,"hard","prediction","learning",26,"learning_control_trial_seq",3,"a",0,0,"b",3,"a",0,1423,0,"3a0",NA,NA,NA,NA,NA,NA,NA,NA,NA,NA,NA,0,0
10,"hard","prediction","learning",27,"learning_control_trial_seq",0,"a",3,3,"a",0,"a",3,1969,0,"0a3",NA,NA,NA,NA,NA,NA,NA,NA,NA,NA,NA,0,0
10,"hard","prediction","learning",28,"learning_control_trial_seq",3,"b",2,0,"a",3,"b",2,877,0,"3b2",NA,NA,NA,NA,NA,NA,NA,NA,NA,NA,NA,1,0
10,"hard","prediction","learning",29,"learning_control_trial_seq",2,"b",0,3,"b",2,"b",0,2191,0,"2b0",NA,NA,NA,NA,NA,NA,NA,NA,NA,NA,NA,0,0
10,"hard","prediction","learning",30,"learning_control_trial_seq",0,"b",3,2,"b",0,"b",3,1603,0,"0b3",NA,NA,NA,NA,NA,NA,NA,NA,NA,NA,NA,0,0
10,"hard","prediction","learning",31,"learning_control_trial_seq",3,"b",2,0,"b",3,"b",2,1657,0,"3b2",NA,NA,NA,NA,NA,NA,NA,NA,NA,NA,NA,0,0
10,"hard","prediction","learning",32,"learning_control_trial_seq",2,"b",1,3,"b",2,"b",1,1433,0,"2b1",NA,NA,NA,NA,NA,NA,NA,NA,NA,NA,NA,0,0
10,"hard","prediction","learning",33,"learning_control_trial_seq",1,"b",1,2,"b",1,"b",1,2161,0,"1b1",NA,NA,NA,NA,NA,NA,NA,NA,NA,NA,NA,0,0
10,"hard","prediction","learning",34,"learning_control_trial_seq",1,"b",3,1,"b",1,"b",3,1365,0,"1b3",NA,NA,NA,NA,NA,NA,NA,NA,NA,NA,NA,0,0
10,"hard","prediction","learning",35,"learning_control_trial_seq",3,"a",0,1,"b",3,"a",0,1762,0,"3a0",NA,NA,NA,NA,NA,NA,NA,NA,NA,NA,NA,0,0
10,"hard","prediction","learning",36,"learning_control_trial_seq",0,"a",3,3,"a",0,"a",3,2279,0,"0a3",NA,NA,NA,NA,NA,NA,NA,NA,NA,NA,NA,0,0
10,"hard","prediction","learning",37,"learning_control_trial_seq",3,"b",2,0,"a",3,"b",2,1767,0,"3b2",NA,NA,NA,NA,NA,NA,NA,NA,NA,NA,NA,0,0
10,"hard","prediction","learning",38,"learning_control_trial_seq",2,"b",1,3,"b",2,"b",1,1435,0,"2b1",NA,NA,NA,NA,NA,NA,NA,NA,NA,NA,NA,0,0
10,"hard","prediction","learning",39,"learning_control_trial_seq",1,"b",3,2,"b",1,"b",3,1669,0,"1b3",NA,NA,NA,NA,NA,NA,NA,NA,NA,NA,NA,0,0
10,"hard","prediction","learning",40,"learning_control_trial_seq",3,"a",2,1,"b",3,"a",2,2919,0,"3a2",NA,NA,NA,NA,NA,NA,NA,NA,NA,NA,NA,0,0
10,"hard","prediction","learning",41,"learning_control_trial_seq",2,"b",0,3,"a",2,"b",0,1702,0,"2b0",NA,NA,NA,NA,NA,NA,NA,NA,NA,NA,NA,0,0
10,"hard","prediction","learning",42,"learning_control_trial_seq",0,"b",3,2,"b",0,"b",3,3713,0,"0b3",NA,NA,NA,NA,NA,NA,NA,NA,NA,NA,NA,0,0
10,"hard","prediction","learning",43,"learning_control_trial_seq",3,"a",2,0,"b",3,"a",2,3399,0,"3a2",NA,NA,NA,NA,NA,NA,NA,NA,NA,NA,NA,0,0
10,"hard","prediction","learning",44,"learning_control_trial_seq",2,"a",2,3,"a",2,"a",2,3269,0,"2a2",NA,NA,NA,NA,NA,NA,NA,NA,NA,NA,NA,0,0
10,"hard","prediction","learning",45,"learning_control_trial_seq",2,"a",2,2,"a",2,"a",2,2086,0,"2a2",NA,NA,NA,NA,NA,NA,NA,NA,NA,NA,NA,0,0
10,"hard","prediction","test",46,NA,NA,NA,NA,2,"a",NA,"b",NA,1711,0,"hard_p_hid_2ab12","hidden","1","2","1","1",TRUE,0.6,0,NA,NA,NA,0,0
10,"hard","prediction","test",47,NA,NA,NA,NA,1,"b",3,"b",NA,3128,0,"hard_p_vis_1b3b30","visible","3","0","3","0",FALSE,0.4,0,NA,NA,NA,0,0
10,"hard","prediction","test",48,NA,NA,NA,NA,3,"b",2,"a",NA,1784,0,"hard_p_vis_3b2a12","visible","1","2","2","2",TRUE,0,1,NA,NA,NA,0,0
10,"hard","prediction","test",49,NA,NA,NA,NA,3,"b",NA,"b",NA,2688,0,"hard_p_hid_3bb13","hidden","1","3","1","1",TRUE,0.36,0.16,NA,NA,NA,0,0
10,"hard","prediction","test",50,NA,NA,NA,NA,0,"a",NA,"a",NA,3409,0,"hard_p_hid_0aa10","hidden","1","0","0","0",TRUE,0,0.4,NA,NA,NA,0,0
10,"hard","prediction","test",51,NA,NA,NA,NA,2,"b",1,"b",NA,2055,0,"hard_p_vis_2b1b10","visible","1","0","1","0",FALSE,0.6,0,NA,NA,NA,0,0
10,"hard","prediction","test",52,NA,NA,NA,NA,1,"b",NA,"a",NA,5932,0,"hard_p_hid_1ba32","hidden","3","2","2","2",TRUE,0,0.24,NA,NA,NA,0,0
10,"hard","prediction","test",53,NA,NA,NA,NA,1,"a",0,"a",NA,4566,0,"hard_p_vis_1a0a30","visible","3","0","3","3",TRUE,1,0,NA,NA,NA,0,0
10,"hard","prediction","test",54,NA,NA,NA,NA,2,"a",NA,"a",NA,5124,0,"hard_p_hid_2aa23","hidden","2","3","2","3",FALSE,1,0,NA,NA,NA,0,0
10,"hard","prediction","test",55,NA,NA,NA,NA,3,"a",NA,"a",NA,4675,0,"hard_p_hid_3aa03","hidden","0","3","3","0",FALSE,0,0.4,NA,NA,NA,0,0
10,"hard","prediction","test",56,NA,NA,NA,NA,1,"b",NA,"a",NA,7039,0,"hard_p_hid_1ba30","hidden","3","0","0","3",FALSE,0,0.4,NA,NA,NA,0,0
10,"hard","prediction","test",57,NA,NA,NA,NA,1,"a",NA,"a",NA,6821,0,"hard_p_hid_1aa32","hidden","3","2","3","2",FALSE,0.4,0,NA,NA,NA,0,0
10,"hard","prediction","test",58,NA,NA,NA,NA,3,"a",NA,"b",NA,6185,0,"hard_p_hid_3ab23","hidden","2","3","3","3",TRUE,0,0.4,NA,NA,NA,0,0
10,"hard","prediction","test",59,NA,NA,NA,NA,3,"a",0,"b",NA,6480,0,"hard_p_vis_3a0b30","visible","3","0","3","0",FALSE,1,0,NA,NA,NA,0,0
10,"hard","prediction","test",60,NA,NA,NA,NA,2,"b",NA,"b",NA,9644,0,"hard_p_hid_2bb13","hidden","1","3","3","1",FALSE,0.36,0.64,NA,NA,NA,0,0
10,"hard","prediction","test",61,NA,NA,NA,NA,2,"a",2,"b",NA,4444,0,"hard_p_vis_2a2b03","visible","0","3","0","0",TRUE,0.4,0,NA,NA,NA,0,0
10,"hard","prediction","test",62,NA,NA,NA,NA,0,"b",3,"a",NA,6691,0,"hard_p_vis_0b3a21","visible","2","1","2","2",TRUE,0.6,0,NA,NA,NA,0,0
10,"hard","prediction","test",63,NA,NA,NA,NA,0,"a",3,"a",NA,9751,0,"hard_p_vis_0a3a30","visible","3","0","0","0",TRUE,0,0.4,NA,NA,NA,0,0
10,"hard","prediction","test",64,NA,NA,NA,NA,0,"a",3,"b",NA,2278,0,"hard_p_vis_0a3b21","visible","2","1","2","1",FALSE,0.6,0,NA,NA,NA,0,0
10,"hard","prediction","test",65,NA,NA,NA,NA,2,"b",1,"a",NA,4267,0,"hard_p_vis_2b1a31","visible","3","1","1","3",FALSE,0,0.6,NA,NA,NA,0,0
11,"easy","control","learning",2,"trial_1_seq",3,"b",3,NA,NA,3,"b",3,6747,0,"3b3",NA,NA,NA,NA,NA,NA,NA,NA,NA,NA,NA,0,0
11,"easy","control","learning",3,"trial_2_seq",3,"b",3,3,"b",3,"b",3,1556,0,"3b3",NA,NA,NA,NA,NA,NA,NA,NA,NA,NA,NA,0,0
11,"easy","control","learning",4,"learning_control_trial_seq",3,"b",3,3,"b",3,"b",3,1140,0,"3b3",NA,NA,NA,NA,NA,NA,NA,NA,NA,NA,NA,0,0
11,"easy","control","learning",5,"learning_control_trial_seq",3,"b",3,3,"b",3,"b",3,748,0,"3b3",NA,NA,NA,NA,NA,NA,NA,NA,NA,NA,NA,1,0
11,"easy","control","learning",6,"learning_control_trial_seq",3,"b",3,3,"b",3,"b",3,555,0,"3b3",NA,NA,NA,NA,NA,NA,NA,NA,NA,NA,NA,1,0
11,"easy","control","learning",7,"learning_control_trial_seq",3,"a",0,3,"b",3,"a",0,2351,0,"3a0",NA,NA,NA,NA,NA,NA,NA,NA,NA,NA,NA,0,0
11,"easy","control","learning",8,"learning_control_trial_seq",0,"a",2,3,"a",0,"a",2,1689,0,"0a2",NA,NA,NA,NA,NA,NA,NA,NA,NA,NA,NA,0,0
11,"easy","control","learning",9,"learning_control_trial_seq",2,"a",0,0,"a",2,"a",0,2955,0,"2a0",NA,NA,NA,NA,NA,NA,NA,NA,NA,NA,NA,0,0
11,"easy","control","learning",10,"learning_control_trial_seq",0,"a",2,2,"a",0,"a",2,1755,0,"0a2",NA,NA,NA,NA,NA,NA,NA,NA,NA,NA,NA,0,0
11,"easy","control","learning",11,"learning_control_trial_seq",2,"b",2,0,"a",2,"b",2,1917,0,"2b2",NA,NA,NA,NA,NA,NA,NA,NA,NA,NA,NA,0,0
11,"easy","control","learning",12,"control_further_screen",2,"b",2,2,"b",2,"b",2,2014,0,"2b2",NA,NA,NA,NA,NA,NA,NA,NA,NA,NA,NA,0,0
11,"easy","control","learning",13,"learning_control_trial_seq",3,"b",3,2,"a",3,"b",3,5043,0,"3b3",NA,NA,NA,NA,NA,NA,NA,NA,NA,NA,NA,0,0
11,"easy","control","learning",14,"learning_control_trial_seq",3,"a",1,3,"b",3,"a",1,2661,0,"3a1",NA,NA,NA,NA,NA,NA,NA,NA,NA,NA,NA,0,0
11,"easy","control","learning",15,"learning_control_trial_seq",1,"b",0,3,"a",1,"b",0,2659,0,"1b0",NA,NA,NA,NA,NA,NA,NA,NA,NA,NA,NA,0,0
11,"easy","control","learning",16,"learning_control_trial_seq",0,"a",2,1,"b",0,"a",2,1388,0,"0a2",NA,NA,NA,NA,NA,NA,NA,NA,NA,NA,NA,0,0
11,"easy","control","learning",17,"learning_control_trial_seq",2,"a",0,0,"a",2,"a",0,6642,0,"2a0",NA,NA,NA,NA,NA,NA,NA,NA,NA,NA,NA,0,0
11,"easy","control","learning",18,"control_further_screen",0,"a",2,2,"a",0,"a",2,1480,0,"0a2",NA,NA,NA,NA,NA,NA,NA,NA,NA,NA,NA,0,0
11,"easy","control","learning",19,"learning_control_trial_seq",3,"b",3,2,"a",3,"b",3,8155,0,"3b3",NA,NA,NA,NA,NA,NA,NA,NA,NA,NA,NA,0,0
11,"easy","control","learning",20,"learning_control_trial_seq",3,"a",1,3,"b",3,"a",1,7030,0,"3a1",NA,NA,NA,NA,NA,NA,NA,NA,NA,NA,NA,0,0
11,"easy","control","learning",21,"learning_control_trial_seq",1,"b",0,3,"a",1,"b",0,942,0,"1b0",NA,NA,NA,NA,NA,NA,NA,NA,NA,NA,NA,1,0
11,"easy","control","learning",22,"control_further_screen",0,"a",2,1,"b",0,"a",2,2517,0,"0a2",NA,NA,NA,NA,NA,NA,NA,NA,NA,NA,NA,0,0
11,"easy","control","learning",23,"learning_control_trial_seq",0,"b",2,2,"a",0,"b",2,2404,0,"0b2",NA,NA,NA,NA,NA,NA,NA,NA,NA,NA,NA,0,0
11,"easy","control","learning",24,"learning_control_trial_seq",2,"b",2,0,"b",2,"b",2,1812,0,"2b2",NA,NA,NA,NA,NA,NA,NA,NA,NA,NA,NA,0,0
11,"easy","control","learning",25,"learning_control_trial_seq",2,"b",2,2,"b",2,"b",2,1379,0,"2b2",NA,NA,NA,NA,NA,NA,NA,NA,NA,NA,NA,0,0
11,"easy","control","learning",26,"learning_control_trial_seq",2,"a",3,2,"b",2,"a",3,996,0,"2a3",NA,NA,NA,NA,NA,NA,NA,NA,NA,NA,NA,1,0
11,"easy","control","learning",27,"control_further_screen",3,"b",3,2,"a",3,"b",3,1649,0,"3b3",NA,NA,NA,NA,NA,NA,NA,NA,NA,NA,NA,0,0
11,"easy","control","learning",28,"learning_control_trial_seq",1,"b",0,3,"a",1,"b",0,1091,0,"1b0",NA,NA,NA,NA,NA,NA,NA,NA,NA,NA,NA,0,0
11,"easy","control","learning",29,"learning_control_trial_seq",0,"a",2,1,"b",0,"a",2,348,0,"0a2",NA,NA,NA,NA,NA,NA,NA,NA,NA,NA,NA,1,0
11,"easy","control","learning",30,"learning_control_trial_seq",2,"a",3,0,"a",2,"a",3,765,0,"2a3",NA,NA,NA,NA,NA,NA,NA,NA,NA,NA,NA,1,0
11,"easy","control","learning",31,"learning_control_trial_seq",3,"b",3,2,"a",3,"b",3,1896,0,"3b3",NA,NA,NA,NA,NA,NA,NA,NA,NA,NA,NA,0,0
11,"easy","control","learning",32,"control_further_screen",3,"b",3,3,"b",3,"b",3,788,0,"3b3",NA,NA,NA,NA,NA,NA,NA,NA,NA,NA,NA,1,0
11,"easy","control","learning",33,"learning_control_trial_seq",3,"b",3,3,"b",3,"b",3,1475,0,"3b3",NA,NA,NA,NA,NA,NA,NA,NA,NA,NA,NA,0,0
11,"easy","control","learning",34,"learning_control_trial_seq",3,"b",3,3,"b",3,"b",3,612,0,"3b3",NA,NA,NA,NA,NA,NA,NA,NA,NA,NA,NA,1,0
11,"easy","control","learning",35,"learning_control_trial_seq",3,"a",0,3,"b",3,"a",0,639,0,"3a0",NA,NA,NA,NA,NA,NA,NA,NA,NA,NA,NA,1,0
11,"easy","control","learning",36,"learning_control_trial_seq",0,"b",2,3,"a",0,"b",2,2181,0,"0b2",NA,NA,NA,NA,NA,NA,NA,NA,NA,NA,NA,0,0
11,"easy","control","learning",37,"learning_control_trial_seq",2,"b",2,0,"b",2,"b",2,607,0,"2b2",NA,NA,NA,NA,NA,NA,NA,NA,NA,NA,NA,1,0
11,"easy","control","learning",38,"learning_control_trial_seq",2,"b",2,2,"b",2,"b",2,606,0,"2b2",NA,NA,NA,NA,NA,NA,NA,NA,NA,NA,NA,1,0
11,"easy","control","learning",39,"learning_control_trial_seq",2,"b",2,2,"b",2,"b",2,566,0,"2b2",NA,NA,NA,NA,NA,NA,NA,NA,NA,NA,NA,1,0
11,"easy","control","learning",40,"learning_control_trial_seq",2,"a",0,2,"b",2,"a",0,632,0,"2a0",NA,NA,NA,NA,NA,NA,NA,NA,NA,NA,NA,1,0
11,"easy","control","learning",41,"learning_control_trial_seq",0,"a",2,2,"a",0,"a",2,1167,0,"0a2",NA,NA,NA,NA,NA,NA,NA,NA,NA,NA,NA,0,0
11,"easy","control","learning",42,"learning_control_trial_seq",2,"b",2,0,"a",2,"b",2,860,0,"2b2",NA,NA,NA,NA,NA,NA,NA,NA,NA,NA,NA,1,0
11,"easy","control","learning",43,"learning_control_trial_seq",2,"b",2,2,"b",2,"b",2,641,0,"2b2",NA,NA,NA,NA,NA,NA,NA,NA,NA,NA,NA,1,0
11,"easy","control","learning",44,"learning_control_trial_seq",2,"a",0,2,"b",2,"a",0,409,0,"2a0",NA,NA,NA,NA,NA,NA,NA,NA,NA,NA,NA,1,0
11,"easy","control","learning",45,"learning_control_trial_seq",0,"b",2,2,"a",0,"b",2,384,0,"0b2",NA,NA,NA,NA,NA,NA,NA,NA,NA,NA,NA,1,0
11,"easy","control","test",46,NA,NA,NA,NA,2,"a",3,NA,3,11481,0,"easy_c_vis_2a3","visible","a","b","b","b",TRUE,0,1,11481,NA,NA,0,0
11,"easy","control","test",47,NA,NA,NA,NA,0,"NA",NA,NA,0,3040,0,"easy_c_hid_00-aa-ab","hidden","aa","ab","aa","aa",TRUE,0.6,0,3040,NA,NA,0,0
11,"easy","control","test",48,NA,NA,NA,NA,3,"b",3,NA,0,2860,0,"easy_c_vis_3b0","visible","a","b","a","a",TRUE,0.4,0,2860,NA,NA,0,0
11,"easy","control","test",49,NA,NA,NA,NA,3,"NA",NA,NA,3,14476,0,"easy_c_hid_33-bb-ba","hidden","bb","ba","bb","bb",TRUE,1,0,14476,NA,NA,0,0
11,"easy","control","test",50,NA,NA,NA,NA,0,"NA",NA,NA,3,15798,0,"easy_c_hid_03-ab-aa","hidden","ab","aa","aa","aa",TRUE,0,0.4,798,NA,NA,0,0
11,"easy","control","test",51,NA,NA,NA,NA,3,"NA",NA,NA,2,1526,0,"easy_c_hid_32-ab-ba","hidden","ab","ba","ab","ba",FALSE,0.4,0,1526,NA,NA,0,0
11,"easy","control","test",52,NA,NA,NA,NA,0,"NA",NA,NA,2,1182,0,"easy_c_hid_02-aa-bb","hidden","aa","bb","bb","bb",TRUE,0,1,1182,NA,NA,0,0
11,"easy","control","test",53,NA,NA,NA,NA,0,"b",2,NA,2,6491,0,"easy_c_vis_0b2","visible","a","b","b","a",FALSE,0,1,6491,NA,NA,0,0
11,"easy","control","test",54,NA,NA,NA,NA,0,"a",2,NA,3,3360,0,"easy_c_vis_0a3","visible","a","b","a","b",FALSE,0.4,0,3360,NA,NA,0,0
11,"easy","control","test",55,NA,NA,NA,NA,3,"b",3,NA,3,918,0,"easy_c_vis_3b3","visible","a","b","b","a",FALSE,0,1,918,NA,NA,1,1
11,"easy","control","test",56,NA,NA,NA,NA,0,"b",2,NA,3,1892,0,"easy_c_vis_0b3","visible","a","b","a","a",TRUE,0.4,0,1892,NA,NA,0,0
11,"easy","control","test",57,NA,NA,NA,NA,2,"NA",NA,NA,1,1210,0,"easy_c_hid_21-ab-aa","hidden","ab","aa","aa","aa",TRUE,0,0.24,1210,NA,NA,0,0
11,"easy","control","test",58,NA,NA,NA,NA,3,"NA",NA,NA,2,789,0,"easy_c_hid_32-aa-bb","hidden","aa","bb","aa","bb",FALSE,0.4,0,789,NA,NA,1,1
11,"easy","control","test",59,NA,NA,NA,NA,0,"a",2,NA,2,1419,0,"easy_c_vis_0a2","visible","a","b","b","b",TRUE,0,1,1419,NA,NA,0,0
11,"easy","control","test",60,NA,NA,NA,NA,2,"NA",NA,NA,2,1951,0,"easy_c_hid_22-aa-bb","hidden","aa","bb","bb","bb",TRUE,0.6,1,1951,NA,NA,0,0
11,"easy","control","test",61,NA,NA,NA,NA,2,"a",3,NA,1,765,0,"easy_c_vis_2a1","visible","a","b","a","a",TRUE,0.6,0,765,NA,NA,1,1
11,"easy","control","test",62,NA,NA,NA,NA,0,"a",2,NA,0,884,0,"easy_c_vis_0a0","visible","a","b","a","a",TRUE,0.6,0,884,NA,NA,1,1
11,"easy","control","test",63,NA,NA,NA,NA,3,"NA",NA,NA,1,2297,0,"easy_c_hid_31-aa-ba","hidden","aa","ba","ba","ba",TRUE,0,0.6,2297,NA,NA,0,0
11,"easy","control","test",64,NA,NA,NA,NA,2,"NA",NA,NA,3,3723,0,"easy_c_hid_23-aa-ab","hidden","aa","ab","ab","aa",FALSE,0,0.4,3723,NA,NA,0,0
11,"easy","control","test",65,NA,NA,NA,NA,2,"b",2,NA,2,869,0,"easy_c_vis_2b2","visible","a","b","b","b",TRUE,0,1,869,NA,NA,1,1
12,"easy","explanation","learning",2,"trial_1_seq",0,"a",2,NA,NA,0,"a",2,3126,0,"0a2",NA,NA,NA,NA,NA,NA,NA,NA,NA,NA,NA,0,0
12,"easy","explanation","learning",3,"trial_2_seq",2,"a",3,0,"a",2,"a",3,2304,0,"2a3",NA,NA,NA,NA,NA,NA,NA,NA,NA,NA,NA,0,0
12,"easy","explanation","learning",4,"learning_control_trial_seq",3,"a",1,2,"a",3,"a",1,3125,0,"3a1",NA,NA,NA,NA,NA,NA,NA,NA,NA,NA,NA,0,0
12,"easy","explanation","learning",5,"learning_control_trial_seq",1,"a",0,3,"a",1,"a",0,5163,0,"1a0",NA,NA,NA,NA,NA,NA,NA,NA,NA,NA,NA,0,0
12,"easy","explanation","learning",6,"learning_control_trial_seq",0,"a",2,1,"a",0,"a",2,2910,0,"0a2",NA,NA,NA,NA,NA,NA,NA,NA,NA,NA,NA,0,0
12,"easy","explanation","learning",7,"learning_control_trial_seq",2,"b",2,0,"a",2,"b",2,3424,0,"2b2",NA,NA,NA,NA,NA,NA,NA,NA,NA,NA,NA,0,0
12,"easy","explanation","learning",8,"learning_control_trial_seq",2,"b",2,2,"b",2,"b",2,1611,0,"2b2",NA,NA,NA,NA,NA,NA,NA,NA,NA,NA,NA,0,0
12,"easy","explanation","learning",9,"learning_control_trial_seq",2,"b",2,2,"b",2,"b",2,2579,0,"2b2",NA,NA,NA,NA,NA,NA,NA,NA,NA,NA,NA,0,0
12,"easy","explanation","learning",10,"learning_control_trial_seq",2,"a",0,2,"b",2,"a",0,1701,0,"2a0",NA,NA,NA,NA,NA,NA,NA,NA,NA,NA,NA,0,0
12,"easy","explanation","learning",11,"learning_control_trial_seq",0,"a",2,2,"a",0,"a",2,4303,0,"0a2",NA,NA,NA,NA,NA,NA,NA,NA,NA,NA,NA,0,0
12,"easy","explanation","learning",12,"learning_control_trial_seq",2,"a",3,0,"a",2,"a",3,1383,0,"2a3",NA,NA,NA,NA,NA,NA,NA,NA,NA,NA,NA,0,0
12,"easy","explanation","learning",13,"learning_control_trial_seq",3,"a",0,2,"a",3,"a",0,4527,0,"3a0",NA,NA,NA,NA,NA,NA,NA,NA,NA,NA,NA,0,0
12,"easy","explanation","learning",14,"learning_control_trial_seq",0,"a",2,3,"a",0,"a",2,2711,0,"0a2",NA,NA,NA,NA,NA,NA,NA,NA,NA,NA,NA,0,0
12,"easy","explanation","learning",15,"learning_control_trial_seq",2,"a",0,0,"a",2,"a",0,1340,0,"2a0",NA,NA,NA,NA,NA,NA,NA,NA,NA,NA,NA,0,0
12,"easy","explanation","learning",16,"learning_control_trial_seq",0,"a",2,2,"a",0,"a",2,1985,0,"0a2",NA,NA,NA,NA,NA,NA,NA,NA,NA,NA,NA,0,0
