"participant_id","fsm_type","test_condition","learning_counter","sender","state_current","response_current","state_next","state_1","response_1","state_2","response_2","state_3","response_time","response_time_lessThan300ms","trial_id"
1,"hard","prediction",2,"trial_1_seq",0,"b",3,NA,NA,0,"b",3,3198.76000000058,0,"0b3"
1,"hard","prediction",3,"trial_2_seq",3,"b",2,0,"b",3,"b",2,3192.00700000276,0,"3b2"
1,"hard","prediction",4,"learning_control_trial_seq",2,"b",0,3,"b",2,"b",0,1661.84800000112,0,"2b0"
1,"hard","prediction",5,"learning_control_trial_seq",0,"b",3,2,"b",0,"b",3,4840.27700000172,0,"0b3"
1,"hard","prediction",6,"learning_control_trial_seq",3,"b",3,0,"b",3,"b",3,5610.9770000032,0,"3b3"
1,"hard","prediction",7,"learning_control_trial_seq",3,"a",2,3,"b",3,"a",2,1629.774000003,0,"3a2"
1,"hard","prediction",8,"learning_control_trial_seq",2,"a",2,3,"a",2,"a",2,4587.91900000127,0,"2a2"
1,"hard","prediction",9,"learning_control_trial_seq",2,"a",2,2,"a",2,"a",2,3128.80800000025,0,"2a2"
1,"hard","prediction",10,"learning_control_trial_seq",2,"a",2,2,"a",2,"a",2,1242.2690000009,0,"2a2"
1,"hard","prediction",11,"learning_control_trial_seq",2,"b",1,2,"a",2,"b",1,827.178000000597,0,"2b1"
1,"hard","prediction",12,"learning_control_trial_seq",1,"b",3,2,"b",1,"b",3,2593.30000000107,0,"1b3"
1,"hard","prediction",13,"learning_control_trial_seq",3,"b",2,1,"b",3,"b",2,4681.3950000015,0,"3b2"
1,"hard","prediction",14,"learning_control_trial_seq",2,"b",1,3,"b",2,"b",1,4616.01600000195,0,"2b1"
1,"hard","prediction",15,"learning_control_trial_seq",1,"b",3,2,"b",1,"b",3,1594.99800000066,0,"1b3"
1,"hard","prediction",16,"learning_control_trial_seq",3,"a",0,1,"b",3,"a",0,1855.86200000354,0,"3a0"
1,"hard","prediction",17,"learning_control_trial_seq",0,"a",3,3,"a",0,"a",3,1995.96900000185,0,"0a3"
1,"hard","prediction",18,"learning_control_trial_seq",3,"b",2,0,"a",3,"b",2,1900.59300000139,0,"3b2"
1,"hard","prediction",19,"learning_control_trial_seq",2,"a",2,3,"b",2,"a",2,1586.68700000326,0,"2a2"
1,"hard","prediction",20,"learning_control_trial_seq",2,"b",0,2,"a",2,"b",0,1428.40600000299,0,"2b0"
1,"hard","prediction",21,"learning_control_trial_seq",0,"a",3,2,"b",0,"a",3,2667.5140000004,0,"0a3"
1,"hard","prediction",22,"learning_control_trial_seq",3,"b",3,0,"a",3,"b",3,1418.0080000023,0,"3b3"
1,"hard","prediction",23,"learning_control_trial_seq",3,"a",0,3,"b",3,"a",0,1387.89800000354,0,"3a0"
1,"hard","prediction",24,"learning_control_trial_seq",0,"a",3,3,"a",0,"a",3,2406.58800000194,0,"0a3"
1,"hard","prediction",25,"learning_control_trial_seq",3,"b",3,0,"a",3,"b",3,3030.24700000082,0,"3b3"
1,"hard","prediction",26,"learning_control_trial_seq",3,"a",2,3,"b",3,"a",2,1808.56600000005,0,"3a2"
1,"hard","prediction",27,"learning_control_trial_seq",2,"b",1,3,"a",2,"b",1,1587.19100000313,0,"2b1"
1,"hard","prediction",28,"learning_control_trial_seq",1,"b",1,2,"b",1,"b",1,2031.30700000311,0,"1b1"
1,"hard","prediction",29,"learning_control_trial_seq",1,"b",1,1,"b",1,"b",1,1367.58400000326,0,"1b1"
1,"hard","prediction",30,"learning_control_trial_seq",1,"b",1,1,"b",1,"b",1,754.969000002719,0,"1b1"
1,"hard","prediction",31,"learning_control_trial_seq",1,"b",3,1,"b",1,"b",3,1178.93700000268,0,"1b3"
1,"hard","prediction",32,"learning_control_trial_seq",3,"a",2,1,"b",3,"a",2,1461.43000000154,0,"3a2"
1,"hard","prediction",33,"learning_control_trial_seq",2,"b",1,3,"a",2,"b",1,1092.55900000245,0,"2b1"
1,"hard","prediction",34,"learning_control_trial_seq",1,"b",1,2,"b",1,"b",1,1126.59700000277,0,"1b1"
1,"hard","prediction",35,"learning_control_trial_seq",1,"a",0,1,"b",1,"a",0,633.768000001699,0,"1a0"
1,"hard","prediction",36,"learning_control_trial_seq",0,"a",3,1,"a",0,"a",3,1166.84900000039,0,"0a3"
1,"hard","prediction",37,"learning_control_trial_seq",3,"a",2,0,"a",3,"a",2,1167.28200000257,0,"3a2"
1,"hard","prediction",38,"learning_control_trial_seq",2,"a",2,3,"a",2,"a",2,1620.95100000169,0,"2a2"
1,"hard","prediction",39,"learning_control_trial_seq",2,"a",2,2,"a",2,"a",2,1105.69800000271,0,"2a2"
1,"hard","prediction",40,"learning_control_trial_seq",2,"b",0,2,"a",2,"b",0,3545.6500000016,0,"2b0"
1,"hard","prediction",41,"learning_control_trial_seq",0,"b",3,2,"b",0,"b",3,838.481000003172,0,"0b3"
1,"hard","prediction",42,"learning_control_trial_seq",3,"b",2,0,"b",3,"b",2,860.669000003079,0,"3b2"
1,"hard","prediction",43,"learning_control_trial_seq",2,"b",1,3,"b",2,"b",1,820.811000000976,0,"2b1"
1,"hard","prediction",44,"learning_control_trial_seq",1,"a",1,2,"b",1,"a",1,3424.34600000246,0,"1a1"
1,"hard","prediction",45,"learning_control_trial_seq",1,"a",0,1,"a",1,"a",0,931.329000000434,0,"1a0"
2,"hard","explanation",2,"trial_1_seq",3,"b",2,NA,NA,3,"b",2,4178.28100002384,0,"3b2"
2,"hard","explanation",3,"trial_2_seq",2,"b",1,3,"b",2,"b",1,2917.11400001192,0,"2b1"
2,"hard","explanation",4,"learning_control_trial_seq",1,"a",1,2,"b",1,"a",1,1811.46200001192,0,"1a1"
2,"hard","explanation",5,"learning_control_trial_seq",1,"a",1,1,"a",1,"a",1,2626.44500002384,0,"1a1"
2,"hard","explanation",6,"learning_control_trial_seq",1,"b",1,1,"a",1,"b",1,2136.36500001192,0,"1b1"
2,"hard","explanation",7,"learning_control_trial_seq",1,"a",1,1,"b",1,"a",1,1352.40499997616,0,"1a1"
2,"hard","explanation",8,"learning_control_trial_seq",1,"a",0,1,"a",1,"a",0,1283.22300002385,0,"1a0"
2,"hard","explanation",9,"learning_control_trial_seq",0,"a",3,1,"a",0,"a",3,1520.77800002384,0,"0a3"
2,"hard","explanation",10,"learning_control_trial_seq",3,"a",2,0,"a",3,"a",2,1180.15600002384,0,"3a2"
2,"hard","explanation",11,"learning_control_trial_seq",2,"a",2,3,"a",2,"a",2,2718.68800002385,0,"2a2"
2,"hard","explanation",12,"learning_control_trial_seq",2,"b",1,2,"a",2,"b",1,1363.03800002384,0,"2b1"
2,"hard","explanation",13,"learning_control_trial_seq",1,"b",1,2,"b",1,"b",1,950.581999988077,0,"1b1"
2,"hard","explanation",14,"learning_control_trial_seq",1,"b",1,1,"b",1,"b",1,3665.21099997616,0,"1b1"
2,"hard","explanation",15,"learning_control_trial_seq",1,"b",3,1,"b",1,"b",3,1214.14299997616,0,"1b3"
2,"hard","explanation",16,"learning_control_trial_seq",3,"b",2,1,"b",3,"b",2,1064.753,0,"3b2"
2,"hard","explanation",17,"learning_control_trial_seq",2,"b",1,3,"b",2,"b",1,1141.65599998808,0,"2b1"
2,"hard","explanation",18,"learning_control_trial_seq",1,"a",0,2,"b",1,"a",0,1615.18000002383,0,"1a0"
2,"hard","explanation",19,"learning_control_trial_seq",0,"b",3,1,"a",0,"b",3,713.957999976148,0,"0b3"
2,"hard","explanation",20,"learning_control_trial_seq",3,"a",0,0,"b",3,"a",0,746.187999976159,0,"3a0"
2,"hard","explanation",21,"learning_control_trial_seq",0,"b",3,3,"a",0,"b",3,1486.99600000001,0,"0b3"
2,"hard","explanation",22,"learning_control_trial_seq",3,"a",2,0,"b",3,"a",2,1163.62199997617,0,"3a2"
2,"hard","explanation",23,"learning_control_trial_seq",2,"b",0,3,"a",2,"b",0,1346.75399999999,0,"2b0"
2,"hard","explanation",24,"learning_control_trial_seq",0,"a",3,2,"b",0,"a",3,2281.69000002384,0,"0a3"
2,"hard","explanation",25,"learning_control_trial_seq",3,"b",3,0,"a",3,"b",3,753.396000011911,0,"3b3"
2,"hard","explanation",26,"learning_control_trial_seq",3,"a",0,3,"b",3,"a",0,1929.70399997616,0,"3a0"
2,"hard","explanation",27,"learning_control_trial_seq",0,"b",3,3,"a",0,"b",3,950.531999988074,0,"0b3"
2,"hard","explanation",28,"learning_control_trial_seq",3,"b",2,0,"b",3,"b",2,1245.092,0,"3b2"
2,"hard","explanation",29,"learning_control_trial_seq",2,"a",2,3,"b",2,"a",2,477.279999988066,0,"2a2"
2,"hard","explanation",30,"learning_control_trial_seq",2,"b",0,2,"a",2,"b",0,1056.79899997616,0,"2b0"
2,"hard","explanation",31,"learning_control_trial_seq",0,"a",3,2,"b",0,"a",3,662.000999988086,0,"0a3"
2,"hard","explanation",32,"learning_control_trial_seq",3,"b",3,0,"a",3,"b",3,1671.37899999999,0,"3b3"
2,"hard","explanation",33,"learning_control_trial_seq",3,"b",2,3,"b",3,"b",2,990.818999999989,0,"3b2"
2,"hard","explanation",34,"learning_control_trial_seq",2,"a",2,3,"b",2,"a",2,561.990999976144,0,"2a2"
2,"hard","explanation",35,"learning_control_trial_seq",2,"b",1,2,"a",2,"b",1,2172.46099997615,0,"2b1"
2,"hard","explanation",36,"learning_control_trial_seq",1,"a",0,2,"b",1,"a",0,838.953000011912,0,"1a0"
2,"hard","explanation",37,"learning_control_trial_seq",0,"a",3,1,"a",0,"a",3,849.748000011925,0,"0a3"
2,"hard","explanation",38,"learning_control_trial_seq",3,"b",3,0,"a",3,"b",3,683.785999999993,0,"3b3"
2,"hard","explanation",39,"learning_control_trial_seq",3,"a",2,3,"b",3,"a",2,672.58999997616,0,"3a2"
2,"hard","explanation",40,"learning_control_trial_seq",2,"b",1,3,"a",2,"b",1,544.167999976169,0,"2b1"
2,"hard","explanation",41,"learning_control_trial_seq",1,"a",1,2,"b",1,"a",1,557.838000023854,0,"1a1"
2,"hard","explanation",42,"learning_control_trial_seq",1,"b",3,1,"a",1,"b",3,759.259999976144,0,"1b3"
2,"hard","explanation",43,"learning_control_trial_seq",3,"a",2,1,"b",3,"a",2,1088.891,0,"3a2"
2,"hard","explanation",44,"learning_control_trial_seq",2,"b",0,3,"a",2,"b",0,611.644999988086,0,"2b0"
2,"hard","explanation",45,"learning_control_trial_seq",0,"b",3,2,"b",0,"b",3,1082.91899998809,0,"0b3"
3,"hard","control",2,"trial_1_seq",3,"b",2,NA,NA,3,"b",2,5774.80599998808,0,"3b2"
3,"hard","control",3,"trial_2_seq",2,"b",0,3,"b",2,"b",0,2982.33600000001,0,"2b0"
3,"hard","control",4,"learning_control_trial_seq",0,"b",3,2,"b",0,"b",3,4619.65799999403,0,"0b3"
3,"hard","control",5,"learning_control_trial_seq",3,"a",2,0,"b",3,"a",2,4187.56599999403,0,"3a2"
3,"hard","control",6,"learning_control_trial_seq",2,"a",2,3,"a",2,"a",2,1487.42899999404,0,"2a2"
3,"hard","control",7,"learning_control_trial_seq",2,"a",2,2,"a",2,"a",2,997.242999991053,0,"2a2"
3,"hard","control",8,"learning_control_trial_seq",2,"a",2,2,"a",2,"a",2,1203.84199999701,0,"2a2"
3,"hard","control",9,"learning_control_trial_seq",2,"b",0,2,"a",2,"b",0,641.716999991069,0,"2b0"
3,"hard","control",10,"learning_control_trial_seq",0,"b",3,2,"b",0,"b",3,686.872999991057,0,"0b3"
3,"hard","control",11,"learning_control_trial_seq",3,"b",3,0,"b",3,"b",3,547.665999997029,0,"3b3"
3,"hard","control",12,"control_further_screen",3,"b",2,3,"b",3,"b",2,513.728000000003,0,"3b2"
3,"hard","control",13,"learning_control_trial_seq",1,"a",0,2,"b",1,"a",0,3404.59299999702,0,"1a0"
3,"hard","control",14,"learning_control_trial_seq",0,"a",3,1,"a",0,"a",3,752.404999999999,0,"0a3"
3,"hard","control",15,"learning_control_trial_seq",3,"a",2,0,"a",3,"a",2,846.950999988068,0,"3a2"
3,"hard","control",16,"learning_control_trial_seq",2,"a",2,3,"a",2,"a",2,962.081000000006,0,"2a2"
3,"hard","control",17,"control_further_screen",2,"b",1,2,"a",2,"b",1,1715.77099999107,0,"2b1"
3,"hard","control",18,"learning_control_trial_seq",0,"a",3,1,"a",0,"a",3,1979.78599999702,0,"0a3"
3,"hard","control",19,"learning_control_trial_seq",3,"a",2,0,"a",3,"a",2,546.19399999702,0,"3a2"
3,"hard","control",20,"learning_control_trial_seq",2,"a",2,3,"a",2,"a",2,11568.046,0,"2a2"
3,"hard","control",21,"learning_control_trial_seq",2,"a",2,2,"a",2,"a",2,1121.46199999403,0,"2a2"
3,"hard","control",22,"control_further_screen",2,"a",2,2,"a",2,"a",2,630.701999988087,0,"2a2"
3,"hard","control",23,"learning_control_trial_seq",1,"a",1,2,"b",1,"a",1,28659.525999991,0,"1a1"
3,"hard","control",24,"learning_control_trial_seq",1,"a",1,1,"a",1,"a",1,1080.489,0,"1a1"
3,"hard","control",25,"learning_control_trial_seq",1,"a",1,1,"a",1,"a",1,259.777999997023,1,"1a1"
3,"hard","control",26,"learning_control_trial_seq",1,"a",0,1,"a",1,"a",0,733.906999991043,0,"1a0"
3,"hard","control",27,"control_further_screen",0,"b",3,1,"a",0,"b",3,872.499999988067,0,"0b3"
3,"hard","control",28,"learning_control_trial_seq",3,"a",0,3,"b",3,"a",0,2374.99400000001,0,"3a0"
3,"hard","control",29,"learning_control_trial_seq",0,"a",3,3,"a",0,"a",3,583.822999999975,0,"0a3"
3,"hard","control",30,"learning_control_trial_seq",3,"a",0,0,"a",3,"a",0,520.123999991047,0,"3a0"
3,"hard","control",31,"learning_control_trial_seq",0,"a",3,3,"a",0,"a",3,2112.31300000002,0,"0a3"
3,"hard","control",32,"control_further_screen",3,"a",2,0,"a",3,"a",2,618.271999997029,0,"3a2"
3,"hard","control",33,"learning_control_trial_seq",2,"b",1,2,"a",2,"b",1,1545.84999999701,0,"2b1"
3,"hard","control",34,"learning_control_trial_seq",1,"b",1,2,"b",1,"b",1,672.387999997009,0,"1b1"
3,"hard","control",35,"learning_control_trial_seq",1,"b",3,1,"b",1,"b",3,581.250999999989,0,"1b3"
3,"hard","control",36,"learning_control_trial_seq",3,"b",3,1,"b",3,"b",3,581.438999994018,0,"3b3"
3,"hard","control",37,"learning_control_trial_seq",3,"b",2,3,"b",3,"b",2,480.293999988062,0,"3b2"
3,"hard","control",38,"learning_control_trial_seq",2,"b",1,3,"b",2,"b",1,507.816999994044,0,"2b1"
3,"hard","control",39,"learning_control_trial_seq",1,"b",1,2,"b",1,"b",1,688.958999997005,0,"1b1"
3,"hard","control",40,"learning_control_trial_seq",1,"b",1,1,"b",1,"b",1,677.799999988056,0,"1b1"
3,"hard","control",41,"learning_control_trial_seq",1,"b",3,1,"b",1,"b",3,570.315999999992,0,"1b3"
3,"hard","control",42,"learning_control_trial_seq",3,"b",2,1,"b",3,"b",2,532.575999988068,0,"3b2"
3,"hard","control",43,"learning_control_trial_seq",2,"b",1,3,"b",2,"b",1,417.610999994038,0,"2b1"
3,"hard","control",44,"learning_control_trial_seq",1,"b",3,2,"b",1,"b",3,426.912000000011,0,"1b3"
3,"hard","control",45,"learning_control_trial_seq",3,"b",2,1,"b",3,"b",2,448.247999994026,0,"3b2"
4,"easy","control",2,"trial_1_seq",1,"b",0,NA,NA,1,"b",0,1629,0,"1b0"
4,"easy","control",3,"trial_2_seq",0,"b",2,1,"b",0,"b",2,1290,0,"0b2"
4,"easy","control",4,"learning_control_trial_seq",2,"b",2,0,"b",2,"b",2,1443,0,"2b2"
4,"easy","control",5,"learning_control_trial_seq",2,"b",2,2,"b",2,"b",2,1190,0,"2b2"
4,"easy","control",6,"learning_control_trial_seq",2,"a",3,2,"b",2,"a",3,2739,0,"2a3"
4,"easy","control",7,"learning_control_trial_seq",3,"a",1,2,"a",3,"a",1,1458,0,"3a1"
4,"easy","control",8,"learning_control_trial_seq",1,"b",0,3,"a",1,"b",0,3994,0,"1b0"
4,"easy","control",9,"learning_control_trial_seq",0,"b",2,1,"b",0,"b",2,1318,0,"0b2"
4,"easy","control",10,"learning_control_trial_seq",2,"a",0,0,"b",2,"a",0,1857,0,"2a0"
4,"easy","control",11,"learning_control_trial_seq",0,"a",2,2,"a",0,"a",2,1063,0,"0a2"
4,"easy","control",12,"control_further_screen",2,"a",3,0,"a",2,"a",3,2227,0,"2a3"
4,"easy","control",13,"learning_control_trial_seq",0,"a",2,3,"a",0,"a",2,4037,0,"0a2"
4,"easy","control",14,"learning_control_trial_seq",2,"a",0,0,"a",2,"a",0,612,0,"2a0"
4,"easy","control",15,"learning_control_trial_seq",0,"a",2,2,"a",0,"a",2,706,0,"0a2"
4,"easy","control",16,"learning_control_trial_seq",2,"a",0,0,"a",2,"a",0,622,0,"2a0"
4,"easy","control",17,"control_further_screen",0,"b",2,2,"a",0,"b",2,940,0,"0b2"
4,"easy","control",18,"learning_control_trial_seq",3,"b",3,2,"a",3,"b",3,1229,0,"3b3"
4,"easy","control",19,"learning_control_trial_seq",3,"b",3,3,"b",3,"b",3,1383,0,"3b3"
4,"easy","control",20,"learning_control_trial_seq",3,"a",0,3,"b",3,"a",0,1202,0,"3a0"
4,"easy","control",21,"learning_control_trial_seq",0,"a",2,3,"a",0,"a",2,1079,0,"0a2"
4,"easy","control",22,"learning_control_trial_seq",2,"a",0,0,"a",2,"a",0,1081,0,"2a0"
4,"easy","control",23,"control_further_screen",0,"b",2,2,"a",0,"b",2,1263,0,"0b2"
4,"easy","control",24,"learning_control_trial_seq",2,"a",0,2,"b",2,"a",0,1240,0,"2a0"
4,"easy","control",25,"learning_control_trial_seq",0,"a",2,2,"a",0,"a",2,434,0,"0a2"
4,"easy","control",26,"learning_control_trial_seq",2,"b",2,0,"a",2,"b",2,889,0,"2b2"
4,"easy","control",27,"control_further_screen",2,"b",2,2,"b",2,"b",2,3808,0,"2b2"
4,"easy","control",28,"learning_control_trial_seq",2,"b",2,2,"b",2,"b",2,1690,0,"2b2"
4,"easy","control",29,"learning_control_trial_seq",2,"b",2,2,"b",2,"b",2,967,0,"2b2"
4,"easy","control",30,"learning_control_trial_seq",2,"a",3,2,"b",2,"a",3,777,0,"2a3"
4,"easy","control",31,"learning_control_trial_seq",3,"a",1,2,"a",3,"a",1,623,0,"3a1"
4,"easy","control",32,"learning_control_trial_seq",1,"b",0,3,"a",1,"b",0,2819,0,"1b0"
4,"easy","control",33,"control_further_screen",0,"b",2,1,"b",0,"b",2,2511,0,"0b2"
4,"easy","control",34,"learning_control_trial_seq",0,"b",2,2,"a",0,"b",2,1182,0,"0b2"
4,"easy","control",35,"learning_control_trial_seq",2,"b",2,0,"b",2,"b",2,625,0,"2b2"
4,"easy","control",36,"learning_control_trial_seq",2,"a",0,2,"b",2,"a",0,758,0,"2a0"
4,"easy","control",37,"learning_control_trial_seq",0,"a",2,2,"a",0,"a",2,924,0,"0a2"
4,"easy","control",38,"learning_control_trial_seq",2,"b",2,0,"a",2,"b",2,2940,0,"2b2"
4,"easy","control",39,"learning_control_trial_seq",2,"a",3,2,"b",2,"a",3,779,0,"2a3"
4,"easy","control",40,"learning_control_trial_seq",3,"b",3,2,"a",3,"b",3,1385,0,"3b3"
4,"easy","control",41,"learning_control_trial_seq",3,"a",1,3,"b",3,"a",1,1572,0,"3a1"
4,"easy","control",42,"learning_control_trial_seq",1,"a",0,3,"a",1,"a",0,1167,0,"1a0"
4,"easy","control",43,"learning_control_trial_seq",0,"a",2,1,"a",0,"a",2,960,0,"0a2"
4,"easy","control",44,"learning_control_trial_seq",2,"a",0,0,"a",2,"a",0,728,0,"2a0"
4,"easy","control",45,"learning_control_trial_seq",0,"b",2,2,"a",0,"b",2,2219,0,"0b2"
5,"easy","prediction",2,"trial_1_seq",1,"b",0,NA,NA,1,"b",0,5173,0,"1b0"
5,"easy","prediction",3,"trial_2_seq",0,"a",2,1,"b",0,"a",2,3768,0,"0a2"
5,"easy","prediction",4,"learning_control_trial_seq",2,"a",0,0,"a",2,"a",0,2827,0,"2a0"
5,"easy","prediction",5,"learning_control_trial_seq",0,"a",2,2,"a",0,"a",2,3047,0,"0a2"
5,"easy","prediction",6,"learning_control_trial_seq",2,"b",2,0,"a",2,"b",2,2098,0,"2b2"
5,"easy","prediction",7,"learning_control_trial_seq",2,"b",2,2,"b",2,"b",2,2112,0,"2b2"
5,"easy","prediction",8,"learning_control_trial_seq",2,"b",2,2,"b",2,"b",2,1691,0,"2b2"
5,"easy","prediction",9,"learning_control_trial_seq",2,"a",0,2,"b",2,"a",0,3240,0,"2a0"
5,"easy","prediction",10,"learning_control_trial_seq",0,"a",2,2,"a",0,"a",2,3526,0,"0a2"
5,"easy","prediction",11,"learning_control_trial_seq",2,"a",0,0,"a",2,"a",0,1125,0,"2a0"
5,"easy","prediction",12,"learning_control_trial_seq",0,"b",2,2,"a",0,"b",2,2291,0,"0b2"
5,"easy","prediction",13,"learning_control_trial_seq",2,"b",2,0,"b",2,"b",2,3849,0,"2b2"
5,"easy","prediction",14,"learning_control_trial_seq",2,"b",2,2,"b",2,"b",2,1248,0,"2b2"
5,"easy","prediction",15,"learning_control_trial_seq",2,"a",3,2,"b",2,"a",3,1330,0,"2a3"
5,"easy","prediction",16,"learning_control_trial_seq",3,"a",1,2,"a",3,"a",1,3589,0,"3a1"
5,"easy","prediction",17,"learning_control_trial_seq",1,"a",0,3,"a",1,"a",0,1561,0,"1a0"
5,"easy","prediction",18,"learning_control_trial_seq",0,"b",2,1,"a",0,"b",2,2648,0,"0b2"
5,"easy","prediction",19,"learning_control_trial_seq",2,"b",2,0,"b",2,"b",2,2140,0,"2b2"
5,"easy","prediction",20,"learning_control_trial_seq",2,"a",3,2,"b",2,"a",3,878,0,"2a3"
5,"easy","prediction",21,"learning_control_trial_seq",3,"a",0,2,"a",3,"a",0,1488,0,"3a0"
5,"easy","prediction",22,"learning_control_trial_seq",0,"a",2,3,"a",0,"a",2,1181,0,"0a2"
5,"easy","prediction",23,"learning_control_trial_seq",2,"b",2,0,"a",2,"b",2,2303,0,"2b2"
5,"easy","prediction",24,"learning_control_trial_seq",2,"b",2,2,"b",2,"b",2,874,0,"2b2"
5,"easy","prediction",25,"learning_control_trial_seq",2,"a",0,2,"b",2,"a",0,574,0,"2a0"
5,"easy","prediction",26,"learning_control_trial_seq",0,"a",2,2,"a",0,"a",2,1458,0,"0a2"
5,"easy","prediction",27,"learning_control_trial_seq",2,"a",3,0,"a",2,"a",3,1639,0,"2a3"
5,"easy","prediction",28,"learning_control_trial_seq",3,"a",1,2,"a",3,"a",1,1986,0,"3a1"
5,"easy","prediction",29,"learning_control_trial_seq",1,"b",0,3,"a",1,"b",0,1216,0,"1b0"
5,"easy","prediction",30,"learning_control_trial_seq",0,"b",2,1,"b",0,"b",2,721,0,"0b2"
5,"easy","prediction",31,"learning_control_trial_seq",2,"a",0,0,"b",2,"a",0,1350,0,"2a0"
5,"easy","prediction",32,"learning_control_trial_seq",0,"a",2,2,"a",0,"a",2,2939,0,"0a2"
5,"easy","prediction",33,"learning_control_trial_seq",2,"b",2,0,"a",2,"b",2,2376,0,"2b2"
5,"easy","prediction",34,"learning_control_trial_seq",2,"b",2,2,"b",2,"b",2,512,0,"2b2"
5,"easy","prediction",35,"learning_control_trial_seq",2,"a",0,2,"b",2,"a",0,481,0,"2a0"
5,"easy","prediction",36,"learning_control_trial_seq",0,"a",2,2,"a",0,"a",2,1100,0,"0a2"
5,"easy","prediction",37,"learning_control_trial_seq",2,"a",3,0,"a",2,"a",3,1528,0,"2a3"
5,"easy","prediction",38,"learning_control_trial_seq",3,"b",3,2,"a",3,"b",3,1178,0,"3b3"
5,"easy","prediction",39,"learning_control_trial_seq",3,"b",3,3,"b",3,"b",3,1556,0,"3b3"
5,"easy","prediction",40,"learning_control_trial_seq",3,"b",3,3,"b",3,"b",3,2505,0,"3b3"
5,"easy","prediction",41,"learning_control_trial_seq",3,"a",1,3,"b",3,"a",1,1084,0,"3a1"
5,"easy","prediction",42,"learning_control_trial_seq",1,"a",0,3,"a",1,"a",0,2242,0,"1a0"
5,"easy","prediction",43,"learning_control_trial_seq",0,"a",2,1,"a",0,"a",2,1061,0,"0a2"
5,"easy","prediction",44,"learning_control_trial_seq",2,"b",2,0,"a",2,"b",2,696,0,"2b2"
5,"easy","prediction",45,"learning_control_trial_seq",2,"b",2,2,"b",2,"b",2,2032,0,"2b2"
6,"hard","prediction",2,"trial_1_seq",1,"a",0,NA,NA,1,"a",0,1422,0,"1a0"
6,"hard","prediction",3,"trial_2_seq",0,"a",3,1,"a",0,"a",3,1389,0,"0a3"
6,"hard","prediction",4,"learning_control_trial_seq",3,"a",2,0,"a",3,"a",2,1972,0,"3a2"
6,"hard","prediction",5,"learning_control_trial_seq",2,"a",2,3,"a",2,"a",2,739,0,"2a2"
6,"hard","prediction",6,"learning_control_trial_seq",2,"a",2,2,"a",2,"a",2,789,0,"2a2"
6,"hard","prediction",7,"learning_control_trial_seq",2,"b",1,2,"a",2,"b",1,805,0,"2b1"
6,"hard","prediction",8,"learning_control_trial_seq",1,"b",1,2,"b",1,"b",1,1122,0,"1b1"
6,"hard","prediction",9,"learning_control_trial_seq",1,"a",1,1,"b",1,"a",1,938,0,"1a1"
6,"hard","prediction",10,"learning_control_trial_seq",1,"b",3,1,"a",1,"b",3,856,0,"1b3"
6,"hard","prediction",11,"learning_control_trial_seq",3,"a",2,1,"b",3,"a",2,656,0,"3a2"
6,"hard","prediction",12,"learning_control_trial_seq",2,"a",2,3,"a",2,"a",2,705,0,"2a2"
6,"hard","prediction",13,"learning_control_trial_seq",2,"b",1,2,"a",2,"b",1,17957,0,"2b1"
6,"hard","prediction",14,"learning_control_trial_seq",1,"b",1,2,"b",1,"b",1,1005,0,"1b1"
6,"hard","prediction",15,"learning_control_trial_seq",1,"a",1,1,"b",1,"a",1,1205,0,"1a1"
6,"hard","prediction",16,"learning_control_trial_seq",1,"a",1,1,"a",1,"a",1,622,0,"1a1"
6,"hard","prediction",17,"learning_control_trial_seq",1,"a",0,1,"a",1,"a",0,556,0,"1a0"
6,"hard","prediction",18,"learning_control_trial_seq",0,"b",3,1,"a",0,"b",3,3039,0,"0b3"
6,"hard","prediction",19,"learning_control_trial_seq",3,"b",3,0,"b",3,"b",3,672,0,"3b3"
6,"hard","prediction",20,"learning_control_trial_seq",3,"b",2,3,"b",3,"b",2,4688,0,"3b2"
6,"hard","prediction",21,"learning_control_trial_seq",2,"b",1,3,"b",2,"b",1,955,0,"2b1"
6,"hard","prediction",22,"learning_control_trial_seq",1,"b",1,2,"b",1,"b",1,689,0,"1b1"
6,"hard","prediction",23,"learning_control_trial_seq",1,"a",0,1,"b",1,"a",0,1422,0,"1a0"
6,"hard","prediction",24,"learning_control_trial_seq",0,"a",3,1,"a",0,"a",3,1256,0,"0a3"
6,"hard","prediction",25,"learning_control_trial_seq",3,"a",0,0,"a",3,"a",0,588,0,"3a0"
6,"hard","prediction",26,"learning_control_trial_seq",0,"a",3,3,"a",0,"a",3,572,0,"0a3"
6,"hard","prediction",27,"learning_control_trial_seq",3,"a",2,0,"a",3,"a",2,2022,0,"3a2"
6,"hard","prediction",28,"learning_control_trial_seq",2,"b",0,3,"a",2,"b",0,889,0,"2b0"
6,"hard","prediction",29,"learning_control_trial_seq",0,"b",3,2,"b",0,"b",3,1022,0,"0b3"
6,"hard","prediction",30,"learning_control_trial_seq",3,"b",2,0,"b",3,"b",2,672,0,"3b2"
6,"hard","prediction",31,"learning_control_trial_seq",2,"b",0,3,"b",2,"b",0,556,0,"2b0"
6,"hard","prediction",32,"learning_control_trial_seq",0,"b",3,2,"b",0,"b",3,606,0,"0b3"
6,"hard","prediction",33,"learning_control_trial_seq",3,"a",0,0,"b",3,"a",0,1072,0,"3a0"
6,"hard","prediction",34,"learning_control_trial_seq",0,"a",3,3,"a",0,"a",3,3055,0,"0a3"
6,"hard","prediction",35,"learning_control_trial_seq",3,"a",2,0,"a",3,"a",2,1106,0,"3a2"
6,"hard","prediction",36,"learning_control_trial_seq",2,"a",2,3,"a",2,"a",2,672,0,"2a2"
6,"hard","prediction",37,"learning_control_trial_seq",2,"a",2,2,"a",2,"a",2,639,0,"2a2"
6,"hard","prediction",38,"learning_control_trial_seq",2,"a",2,2,"a",2,"a",2,1222,0,"2a2"
6,"hard","prediction",39,"learning_control_trial_seq",2,"a",2,2,"a",2,"a",2,739,0,"2a2"
6,"hard","prediction",40,"learning_control_trial_seq",2,"b",1,2,"a",2,"b",1,789,0,"2b1"
6,"hard","prediction",41,"learning_control_trial_seq",1,"b",3,2,"b",1,"b",3,472,0,"1b3"
6,"hard","prediction",42,"learning_control_trial_seq",3,"b",2,1,"b",3,"b",2,555,0,"3b2"
6,"hard","prediction",43,"learning_control_trial_seq",2,"b",1,3,"b",2,"b",1,489,0,"2b1"
6,"hard","prediction",44,"learning_control_trial_seq",1,"b",3,2,"b",1,"b",3,739,0,"1b3"
6,"hard","prediction",45,"learning_control_trial_seq",3,"b",3,1,"b",3,"b",3,639,0,"3b3"
7,"easy","prediction",2,"trial_1_seq",3,"a",0,NA,NA,3,"a",0,3513,0,"3a0"
7,"easy","prediction",3,"trial_2_seq",0,"a",2,3,"a",0,"a",2,1914,0,"0a2"
7,"easy","prediction",4,"learning_control_trial_seq",2,"b",2,0,"a",2,"b",2,637,0,"2b2"
7,"easy","prediction",5,"learning_control_trial_seq",2,"a",3,2,"b",2,"a",3,1485,0,"2a3"
7,"easy","prediction",6,"learning_control_trial_seq",3,"b",3,2,"a",3,"b",3,1109,0,"3b3"
7,"easy","prediction",7,"learning_control_trial_seq",3,"b",3,3,"b",3,"b",3,1221,0,"3b3"
7,"easy","prediction",8,"learning_control_trial_seq",3,"a",1,3,"b",3,"a",1,1235,0,"3a1"
7,"easy","prediction",9,"learning_control_trial_seq",1,"a",0,3,"a",1,"a",0,771,0,"1a0"
7,"easy","prediction",10,"learning_control_trial_seq",0,"a",2,1,"a",0,"a",2,752,0,"0a2"
7,"easy","prediction",11,"learning_control_trial_seq",2,"a",0,0,"a",2,"a",0,622,0,"2a0"
7,"easy","prediction",12,"learning_control_trial_seq",0,"a",2,2,"a",0,"a",2,626,0,"0a2"
7,"easy","prediction",13,"learning_control_trial_seq",2,"b",2,0,"a",2,"b",2,2071,0,"2b2"
7,"easy","prediction",14,"learning_control_trial_seq",2,"b",2,2,"b",2,"b",2,1043,0,"2b2"
7,"easy","prediction",15,"learning_control_trial_seq",2,"b",2,2,"b",2,"b",2,692,0,"2b2"
7,"easy","prediction",16,"learning_control_trial_seq",2,"a",0,2,"b",2,"a",0,484,0,"2a0"
7,"easy","prediction",17,"learning_control_trial_seq",0,"a",2,2,"a",0,"a",2,646,0,"0a2"
7,"easy","prediction",18,"learning_control_trial_seq",2,"b",2,0,"a",2,"b",2,1083,0,"2b2"
7,"easy","prediction",19,"learning_control_trial_seq",2,"a",0,2,"b",2,"a",0,1058,0,"2a0"
7,"easy","prediction",20,"learning_control_trial_seq",0,"a",2,2,"a",0,"a",2,717,0,"0a2"
7,"easy","prediction",21,"learning_control_trial_seq",2,"a",3,0,"a",2,"a",3,932,0,"2a3"
7,"easy","prediction",22,"learning_control_trial_seq",3,"b",3,2,"a",3,"b",3,1305,0,"3b3"
7,"easy","prediction",23,"learning_control_trial_seq",3,"a",1,3,"b",3,"a",1,1117,0,"3a1"
7,"easy","prediction",24,"learning_control_trial_seq",1,"a",0,3,"a",1,"a",0,536,0,"1a0"
7,"easy","prediction",25,"learning_control_trial_seq",0,"a",2,1,"a",0,"a",2,727,0,"0a2"
7,"easy","prediction",26,"learning_control_trial_seq",2,"a",0,0,"a",2,"a",0,797,0,"2a0"
7,"easy","prediction",27,"learning_control_trial_seq",0,"b",2,2,"a",0,"b",2,482,0,"0b2"
7,"easy","prediction",28,"learning_control_trial_seq",2,"a",0,0,"b",2,"a",0,1605,0,"2a0"
7,"easy","prediction",29,"learning_control_trial_seq",0,"a",2,2,"a",0,"a",2,106,1,"0a2"
7,"easy","prediction",30,"learning_control_trial_seq",2,"a",0,0,"a",2,"a",0,457,0,"2a0"
7,"easy","prediction",31,"learning_control_trial_seq",0,"b",2,2,"a",0,"b",2,682,0,"0b2"
7,"easy","prediction",32,"learning_control_trial_seq",2,"a",3,0,"b",2,"a",3,869,0,"2a3"
7,"easy","prediction",33,"learning_control_trial_seq",3,"b",3,2,"a",3,"b",3,1347,0,"3b3"
7,"easy","prediction",34,"learning_control_trial_seq",3,"a",1,3,"b",3,"a",1,586,0,"3a1"
7,"easy","prediction",35,"learning_control_trial_seq",1,"b",0,3,"a",1,"b",0,458,0,"1b0"
7,"easy","prediction",36,"learning_control_trial_seq",0,"a",2,1,"b",0,"a",2,843,0,"0a2"
7,"easy","prediction",37,"learning_control_trial_seq",2,"a",3,0,"a",2,"a",3,573,0,"2a3"
7,"easy","prediction",38,"learning_control_trial_seq",3,"a",0,2,"a",3,"a",0,849,0,"3a0"
7,"easy","prediction",39,"learning_control_trial_seq",0,"a",2,3,"a",0,"a",2,1043,0,"0a2"
7,"easy","prediction",40,"learning_control_trial_seq",2,"a",0,0,"a",2,"a",0,708,0,"2a0"
7,"easy","prediction",41,"learning_control_trial_seq",0,"b",2,2,"a",0,"b",2,763,0,"0b2"
7,"easy","prediction",42,"learning_control_trial_seq",2,"a",3,0,"b",2,"a",3,672,0,"2a3"
7,"easy","prediction",43,"learning_control_trial_seq",3,"a",0,2,"a",3,"a",0,665,0,"3a0"
7,"easy","prediction",44,"learning_control_trial_seq",0,"a",2,3,"a",0,"a",2,1026,0,"0a2"
7,"easy","prediction",45,"learning_control_trial_seq",2,"a",3,0,"a",2,"a",3,359,0,"2a3"
8,"easy","prediction",2,"trial_1_seq",3,"b",3,NA,NA,3,"b",3,2039,0,"3b3"
8,"easy","prediction",3,"trial_2_seq",3,"b",3,3,"b",3,"b",3,2381,0,"3b3"
8,"easy","prediction",4,"learning_control_trial_seq",3,"a",1,3,"b",3,"a",1,1004,0,"3a1"
8,"easy","prediction",5,"learning_control_trial_seq",1,"a",0,3,"a",1,"a",0,1560,0,"1a0"
8,"easy","prediction",6,"learning_control_trial_seq",0,"a",2,1,"a",0,"a",2,2123,0,"0a2"
8,"easy","prediction",7,"learning_control_trial_seq",2,"a",3,0,"a",2,"a",3,1023,0,"2a3"
8,"easy","prediction",8,"learning_control_trial_seq",3,"a",1,2,"a",3,"a",1,806,0,"3a1"
8,"easy","prediction",9,"learning_control_trial_seq",1,"a",0,3,"a",1,"a",0,1159,0,"1a0"
8,"easy","prediction",10,"learning_control_trial_seq",0,"a",2,1,"a",0,"a",2,1081,0,"0a2"
8,"easy","prediction",11,"learning_control_trial_seq",2,"b",2,0,"a",2,"b",2,778,0,"2b2"
8,"easy","prediction",12,"learning_control_trial_seq",2,"b",2,2,"b",2,"b",2,582,0,"2b2"
8,"easy","prediction",13,"learning_control_trial_seq",2,"a",3,2,"b",2,"a",3,2060,0,"2a3"
8,"easy","prediction",14,"learning_control_trial_seq",3,"a",0,2,"a",3,"a",0,916,0,"3a0"
8,"easy","prediction",15,"learning_control_trial_seq",0,"a",2,3,"a",0,"a",2,2687,0,"0a2"
8,"easy","prediction",16,"learning_control_trial_seq",2,"a",0,0,"a",2,"a",0,567,0,"2a0"
8,"easy","prediction",17,"learning_control_trial_seq",0,"b",2,2,"a",0,"b",2,2996,0,"0b2"
8,"easy","prediction",18,"learning_control_trial_seq",2,"b",2,0,"b",2,"b",2,2132,0,"2b2"
8,"easy","prediction",19,"learning_control_trial_seq",2,"a",0,2,"b",2,"a",0,1631,0,"2a0"
8,"easy","prediction",20,"learning_control_trial_seq",0,"b",2,2,"a",0,"b",2,1022,0,"0b2"
8,"easy","prediction",21,"learning_control_trial_seq",2,"a",0,0,"b",2,"a",0,793,0,"2a0"
8,"easy","prediction",22,"learning_control_trial_seq",0,"a",2,2,"a",0,"a",2,508,0,"0a2"
8,"easy","prediction",23,"learning_control_trial_seq",2,"a",0,0,"a",2,"a",0,989,0,"2a0"
8,"easy","prediction",24,"learning_control_trial_seq",0,"a",2,2,"a",0,"a",2,980,0,"0a2"
8,"easy","prediction",25,"learning_control_trial_seq",2,"a",0,0,"a",2,"a",0,476,0,"2a0"
8,"easy","prediction",26,"learning_control_trial_seq",0,"b",2,2,"a",0,"b",2,1476,0,"0b2"
8,"easy","prediction",27,"learning_control_trial_seq",2,"b",2,0,"b",2,"b",2,558,0,"2b2"
8,"easy","prediction",28,"learning_control_trial_seq",2,"a",3,2,"b",2,"a",3,2019,0,"2a3"
8,"easy","prediction",29,"learning_control_trial_seq",3,"b",3,2,"a",3,"b",3,646,0,"3b3"
8,"easy","prediction",30,"learning_control_trial_seq",3,"b",3,3,"b",3,"b",3,576,0,"3b3"
8,"easy","prediction",31,"learning_control_trial_seq",3,"a",1,3,"b",3,"a",1,1676,0,"3a1"
8,"easy","prediction",32,"learning_control_trial_seq",1,"b",0,3,"a",1,"b",0,1984,0,"1b0"
8,"easy","prediction",33,"learning_control_trial_seq",0,"a",2,1,"b",0,"a",2,1458,0,"0a2"
8,"easy","prediction",34,"learning_control_trial_seq",2,"b",2,0,"a",2,"b",2,2104,0,"2b2"
8,"easy","prediction",35,"learning_control_trial_seq",2,"a",0,2,"b",2,"a",0,1414,0,"2a0"
8,"easy","prediction",36,"learning_control_trial_seq",0,"a",2,2,"a",0,"a",2,2212,0,"0a2"
8,"easy","prediction",37,"learning_control_trial_seq",2,"a",3,0,"a",2,"a",3,652,0,"2a3"
8,"easy","prediction",38,"learning_control_trial_seq",3,"a",0,2,"a",3,"a",0,776,0,"3a0"
8,"easy","prediction",39,"learning_control_trial_seq",0,"a",2,3,"a",0,"a",2,573,0,"0a2"
8,"easy","prediction",40,"learning_control_trial_seq",2,"a",3,0,"a",2,"a",3,443,0,"2a3"
8,"easy","prediction",41,"learning_control_trial_seq",3,"a",1,2,"a",3,"a",1,2136,0,"3a1"
8,"easy","prediction",42,"learning_control_trial_seq",1,"b",0,3,"a",1,"b",0,1348,0,"1b0"
8,"easy","prediction",43,"learning_control_trial_seq",0,"b",2,1,"b",0,"b",2,570,0,"0b2"
8,"easy","prediction",44,"learning_control_trial_seq",2,"b",2,0,"b",2,"b",2,398,0,"2b2"
8,"easy","prediction",45,"learning_control_trial_seq",2,"b",2,2,"b",2,"b",2,621,0,"2b2"
9,"easy","prediction",2,"trial_1_seq",3,"a",1,NA,NA,3,"a",1,1632,0,"3a1"
9,"easy","prediction",3,"trial_2_seq",1,"a",0,3,"a",1,"a",0,2116,0,"1a0"
9,"easy","prediction",4,"learning_control_trial_seq",0,"b",2,1,"a",0,"b",2,1153,0,"0b2"
9,"easy","prediction",5,"learning_control_trial_seq",2,"b",2,0,"b",2,"b",2,1068,0,"2b2"
9,"easy","prediction",6,"learning_control_trial_seq",2,"b",2,2,"b",2,"b",2,1019,0,"2b2"
9,"easy","prediction",7,"learning_control_trial_seq",2,"b",2,2,"b",2,"b",2,691,0,"2b2"
9,"easy","prediction",8,"learning_control_trial_seq",2,"a",0,2,"b",2,"a",0,714,0,"2a0"
9,"easy","prediction",9,"learning_control_trial_seq",0,"a",2,2,"a",0,"a",2,426,0,"0a2"
9,"easy","prediction",10,"learning_control_trial_seq",2,"a",0,0,"a",2,"a",0,459,0,"2a0"
9,"easy","prediction",11,"learning_control_trial_seq",0,"a",2,2,"a",0,"a",2,854,0,"0a2"
9,"easy","prediction",12,"learning_control_trial_seq",2,"b",2,0,"a",2,"b",2,1932,0,"2b2"
9,"easy","prediction",13,"learning_control_trial_seq",2,"a",3,2,"b",2,"a",3,1736,0,"2a3"
9,"easy","prediction",14,"learning_control_trial_seq",3,"a",1,2,"a",3,"a",1,2806,0,"3a1"
9,"easy","prediction",15,"learning_control_trial_seq",1,"a",0,3,"a",1,"a",0,1589,0,"1a0"
9,"easy","prediction",16,"learning_control_trial_seq",0,"a",2,1,"a",0,"a",2,745,0,"0a2"
9,"easy","prediction",17,"learning_control_trial_seq",2,"b",2,0,"a",2,"b",2,1324,0,"2b2"
9,"easy","prediction",18,"learning_control_trial_seq",2,"b",2,2,"b",2,"b",2,1346,0,"2b2"
9,"easy","prediction",19,"learning_control_trial_seq",2,"b",2,2,"b",2,"b",2,524,0,"2b2"
9,"easy","prediction",20,"learning_control_trial_seq",2,"a",3,2,"b",2,"a",3,451,0,"2a3"
9,"easy","prediction",21,"learning_control_trial_seq",3,"a",0,2,"a",3,"a",0,411,0,"3a0"
9,"easy","prediction",22,"learning_control_trial_seq",0,"a",2,3,"a",0,"a",2,700,0,"0a2"
9,"easy","prediction",23,"learning_control_trial_seq",2,"a",0,0,"a",2,"a",0,1494,0,"2a0"
9,"easy","prediction",24,"learning_control_trial_seq",0,"a",2,2,"a",0,"a",2,1769,0,"0a2"
9,"easy","prediction",25,"learning_control_trial_seq",2,"a",0,0,"a",2,"a",0,896,0,"2a0"
9,"easy","prediction",26,"learning_control_trial_seq",0,"a",2,2,"a",0,"a",2,1194,0,"0a2"
9,"easy","prediction",27,"learning_control_trial_seq",2,"b",2,0,"a",2,"b",2,1520,0,"2b2"
9,"easy","prediction",28,"learning_control_trial_seq",2,"b",2,2,"b",2,"b",2,4296,0,"2b2"
9,"easy","prediction",29,"learning_control_trial_seq",2,"b",2,2,"b",2,"b",2,1350,0,"2b2"
9,"easy","prediction",30,"learning_control_trial_seq",2,"a",0,2,"b",2,"a",0,509,0,"2a0"
9,"easy","prediction",31,"learning_control_trial_seq",0,"a",2,2,"a",0,"a",2,698,0,"0a2"
9,"easy","prediction",32,"learning_control_trial_seq",2,"a",3,0,"a",2,"a",3,606,0,"2a3"
9,"easy","prediction",33,"learning_control_trial_seq",3,"a",0,2,"a",3,"a",0,3872,0,"3a0"
9,"easy","prediction",34,"learning_control_trial_seq",0,"a",2,3,"a",0,"a",2,850,0,"0a2"
9,"easy","prediction",35,"learning_control_trial_seq",2,"a",0,0,"a",2,"a",0,641,0,"2a0"
9,"easy","prediction",36,"learning_control_trial_seq",0,"a",2,2,"a",0,"a",2,781,0,"0a2"
9,"easy","prediction",37,"learning_control_trial_seq",2,"b",2,0,"a",2,"b",2,778,0,"2b2"
9,"easy","prediction",38,"learning_control_trial_seq",2,"b",2,2,"b",2,"b",2,618,0,"2b2"
9,"easy","prediction",39,"learning_control_trial_seq",2,"b",2,2,"b",2,"b",2,486,0,"2b2"
9,"easy","prediction",40,"learning_control_trial_seq",2,"b",2,2,"b",2,"b",2,528,0,"2b2"
9,"easy","prediction",41,"learning_control_trial_seq",2,"a",3,2,"b",2,"a",3,406,0,"2a3"
9,"easy","prediction",42,"learning_control_trial_seq",3,"a",1,2,"a",3,"a",1,466,0,"3a1"
9,"easy","prediction",43,"learning_control_trial_seq",1,"a",0,3,"a",1,"a",0,476,0,"1a0"
9,"easy","prediction",44,"learning_control_trial_seq",0,"a",2,1,"a",0,"a",2,1306,0,"0a2"
9,"easy","prediction",45,"learning_control_trial_seq",2,"a",3,0,"a",2,"a",3,1376,0,"2a3"
10,"hard","prediction",2,"trial_1_seq",2,"b",0,NA,NA,2,"b",0,2423,0,"2b0"
10,"hard","prediction",3,"trial_2_seq",0,"b",3,2,"b",0,"b",3,9235,0,"0b3"
10,"hard","prediction",4,"learning_control_trial_seq",3,"b",2,0,"b",3,"b",2,18568,0,"3b2"
10,"hard","prediction",5,"learning_control_trial_seq",2,"b",1,3,"b",2,"b",1,5379,0,"2b1"
10,"hard","prediction",6,"learning_control_trial_seq",1,"b",1,2,"b",1,"b",1,6760,0,"1b1"
10,"hard","prediction",7,"learning_control_trial_seq",1,"b",1,1,"b",1,"b",1,4512,0,"1b1"
10,"hard","prediction",8,"learning_control_trial_seq",1,"a",1,1,"b",1,"a",1,5371,0,"1a1"
10,"hard","prediction",9,"learning_control_trial_seq",1,"a",1,1,"a",1,"a",1,3666,0,"1a1"
10,"hard","prediction",10,"learning_control_trial_seq",1,"b",3,1,"a",1,"b",3,1386,0,"1b3"
10,"hard","prediction",11,"learning_control_trial_seq",3,"b",2,1,"b",3,"b",2,3344,0,"3b2"
10,"hard","prediction",12,"learning_control_trial_seq",2,"b",1,3,"b",2,"b",1,1984,0,"2b1"
10,"hard","prediction",13,"learning_control_trial_seq",1,"b",1,2,"b",1,"b",1,4672,0,"1b1"
10,"hard","prediction",14,"learning_control_trial_seq",1,"b",3,1,"b",1,"b",3,1238,0,"1b3"
10,"hard","prediction",15,"learning_control_trial_seq",3,"b",3,1,"b",3,"b",3,2742,0,"3b3"
10,"hard","prediction",16,"learning_control_trial_seq",3,"b",3,3,"b",3,"b",3,1404,0,"3b3"
10,"hard","prediction",17,"learning_control_trial_seq",3,"a",2,3,"b",3,"a",2,1103,0,"3a2"
10,"hard","prediction",18,"learning_control_trial_seq",2,"b",0,3,"a",2,"b",0,1144,0,"2b0"
10,"hard","prediction",19,"learning_control_trial_seq",0,"b",3,2,"b",0,"b",3,1550,0,"0b3"
10,"hard","prediction",20,"learning_control_trial_seq",3,"b",2,0,"b",3,"b",2,1843,0,"3b2"
10,"hard","prediction",21,"learning_control_trial_seq",2,"a",2,3,"b",2,"a",2,2190,0,"2a2"
10,"hard","prediction",22,"learning_control_trial_seq",2,"a",2,2,"a",2,"a",2,2074,0,"2a2"
10,"hard","prediction",23,"learning_control_trial_seq",2,"b",1,2,"a",2,"b",1,2030,0,"2b1"
10,"hard","prediction",24,"learning_control_trial_seq",1,"a",0,2,"b",1,"a",0,2176,0,"1a0"
10,"hard","prediction",25,"learning_control_trial_seq",0,"b",3,1,"a",0,"b",3,2640,0,"0b3"
10,"hard","prediction",26,"learning_control_trial_seq",3,"a",0,0,"b",3,"a",0,1423,0,"3a0"
10,"hard","prediction",27,"learning_control_trial_seq",0,"a",3,3,"a",0,"a",3,1969,0,"0a3"
10,"hard","prediction",28,"learning_control_trial_seq",3,"b",2,0,"a",3,"b",2,877,0,"3b2"
10,"hard","prediction",29,"learning_control_trial_seq",2,"b",0,3,"b",2,"b",0,2191,0,"2b0"
10,"hard","prediction",30,"learning_control_trial_seq",0,"b",3,2,"b",0,"b",3,1603,0,"0b3"
10,"hard","prediction",31,"learning_control_trial_seq",3,"b",2,0,"b",3,"b",2,1657,0,"3b2"
10,"hard","prediction",32,"learning_control_trial_seq",2,"b",1,3,"b",2,"b",1,1433,0,"2b1"
10,"hard","prediction",33,"learning_control_trial_seq",1,"b",1,2,"b",1,"b",1,2161,0,"1b1"
10,"hard","prediction",34,"learning_control_trial_seq",1,"b",3,1,"b",1,"b",3,1365,0,"1b3"
10,"hard","prediction",35,"learning_control_trial_seq",3,"a",0,1,"b",3,"a",0,1762,0,"3a0"
10,"hard","prediction",36,"learning_control_trial_seq",0,"a",3,3,"a",0,"a",3,2279,0,"0a3"
10,"hard","prediction",37,"learning_control_trial_seq",3,"b",2,0,"a",3,"b",2,1767,0,"3b2"
10,"hard","prediction",38,"learning_control_trial_seq",2,"b",1,3,"b",2,"b",1,1435,0,"2b1"
10,"hard","prediction",39,"learning_control_trial_seq",1,"b",3,2,"b",1,"b",3,1669,0,"1b3"
10,"hard","prediction",40,"learning_control_trial_seq",3,"a",2,1,"b",3,"a",2,2919,0,"3a2"
10,"hard","prediction",41,"learning_control_trial_seq",2,"b",0,3,"a",2,"b",0,1702,0,"2b0"
10,"hard","prediction",42,"learning_control_trial_seq",0,"b",3,2,"b",0,"b",3,3713,0,"0b3"
10,"hard","prediction",43,"learning_control_trial_seq",3,"a",2,0,"b",3,"a",2,3399,0,"3a2"
10,"hard","prediction",44,"learning_control_trial_seq",2,"a",2,3,"a",2,"a",2,3269,0,"2a2"
10,"hard","prediction",45,"learning_control_trial_seq",2,"a",2,2,"a",2,"a",2,2086,0,"2a2"
11,"easy","control",2,"trial_1_seq",3,"b",3,NA,NA,3,"b",3,6747,0,"3b3"
11,"easy","control",3,"trial_2_seq",3,"b",3,3,"b",3,"b",3,1556,0,"3b3"
11,"easy","control",4,"learning_control_trial_seq",3,"b",3,3,"b",3,"b",3,1140,0,"3b3"
11,"easy","control",5,"learning_control_trial_seq",3,"b",3,3,"b",3,"b",3,748,0,"3b3"
11,"easy","control",6,"learning_control_trial_seq",3,"b",3,3,"b",3,"b",3,555,0,"3b3"
11,"easy","control",7,"learning_control_trial_seq",3,"a",0,3,"b",3,"a",0,2351,0,"3a0"
11,"easy","control",8,"learning_control_trial_seq",0,"a",2,3,"a",0,"a",2,1689,0,"0a2"
11,"easy","control",9,"learning_control_trial_seq",2,"a",0,0,"a",2,"a",0,2955,0,"2a0"
11,"easy","control",10,"learning_control_trial_seq",0,"a",2,2,"a",0,"a",2,1755,0,"0a2"
11,"easy","control",11,"learning_control_trial_seq",2,"b",2,0,"a",2,"b",2,1917,0,"2b2"
11,"easy","control",12,"control_further_screen",2,"b",2,2,"b",2,"b",2,2014,0,"2b2"
11,"easy","control",13,"learning_control_trial_seq",3,"b",3,2,"a",3,"b",3,5043,0,"3b3"
11,"easy","control",14,"learning_control_trial_seq",3,"a",1,3,"b",3,"a",1,2661,0,"3a1"
11,"easy","control",15,"learning_control_trial_seq",1,"b",0,3,"a",1,"b",0,2659,0,"1b0"
11,"easy","control",16,"learning_control_trial_seq",0,"a",2,1,"b",0,"a",2,1388,0,"0a2"
11,"easy","control",17,"learning_control_trial_seq",2,"a",0,0,"a",2,"a",0,6642,0,"2a0"
11,"easy","control",18,"control_further_screen",0,"a",2,2,"a",0,"a",2,1480,0,"0a2"
11,"easy","control",19,"learning_control_trial_seq",3,"b",3,2,"a",3,"b",3,8155,0,"3b3"
11,"easy","control",20,"learning_control_trial_seq",3,"a",1,3,"b",3,"a",1,7030,0,"3a1"
11,"easy","control",21,"learning_control_trial_seq",1,"b",0,3,"a",1,"b",0,942,0,"1b0"
11,"easy","control",22,"control_further_screen",0,"a",2,1,"b",0,"a",2,2517,0,"0a2"
11,"easy","control",23,"learning_control_trial_seq",0,"b",2,2,"a",0,"b",2,2404,0,"0b2"
11,"easy","control",24,"learning_control_trial_seq",2,"b",2,0,"b",2,"b",2,1812,0,"2b2"
11,"easy","control",25,"learning_control_trial_seq",2,"b",2,2,"b",2,"b",2,1379,0,"2b2"
11,"easy","control",26,"learning_control_trial_seq",2,"a",3,2,"b",2,"a",3,996,0,"2a3"
11,"easy","control",27,"control_further_screen",3,"b",3,2,"a",3,"b",3,1649,0,"3b3"
11,"easy","control",28,"learning_control_trial_seq",1,"b",0,3,"a",1,"b",0,1091,0,"1b0"
11,"easy","control",29,"learning_control_trial_seq",0,"a",2,1,"b",0,"a",2,348,0,"0a2"
11,"easy","control",30,"learning_control_trial_seq",2,"a",3,0,"a",2,"a",3,765,0,"2a3"
11,"easy","control",31,"learning_control_trial_seq",3,"b",3,2,"a",3,"b",3,1896,0,"3b3"
11,"easy","control",32,"control_further_screen",3,"b",3,3,"b",3,"b",3,788,0,"3b3"
11,"easy","control",33,"learning_control_trial_seq",3,"b",3,3,"b",3,"b",3,1475,0,"3b3"
11,"easy","control",34,"learning_control_trial_seq",3,"b",3,3,"b",3,"b",3,612,0,"3b3"
11,"easy","control",35,"learning_control_trial_seq",3,"a",0,3,"b",3,"a",0,639,0,"3a0"
11,"easy","control",36,"learning_control_trial_seq",0,"b",2,3,"a",0,"b",2,2181,0,"0b2"
11,"easy","control",37,"learning_control_trial_seq",2,"b",2,0,"b",2,"b",2,607,0,"2b2"
11,"easy","control",38,"learning_control_trial_seq",2,"b",2,2,"b",2,"b",2,606,0,"2b2"
11,"easy","control",39,"learning_control_trial_seq",2,"b",2,2,"b",2,"b",2,566,0,"2b2"
11,"easy","control",40,"learning_control_trial_seq",2,"a",0,2,"b",2,"a",0,632,0,"2a0"
11,"easy","control",41,"learning_control_trial_seq",0,"a",2,2,"a",0,"a",2,1167,0,"0a2"
11,"easy","control",42,"learning_control_trial_seq",2,"b",2,0,"a",2,"b",2,860,0,"2b2"
11,"easy","control",43,"learning_control_trial_seq",2,"b",2,2,"b",2,"b",2,641,0,"2b2"
11,"easy","control",44,"learning_control_trial_seq",2,"a",0,2,"b",2,"a",0,409,0,"2a0"
11,"easy","control",45,"learning_control_trial_seq",0,"b",2,2,"a",0,"b",2,384,0,"0b2"
12,"easy","explanation",2,"trial_1_seq",0,"a",2,NA,NA,0,"a",2,3126,0,"0a2"
12,"easy","explanation",3,"trial_2_seq",2,"a",3,0,"a",2,"a",3,2304,0,"2a3"
12,"easy","explanation",4,"learning_control_trial_seq",3,"a",1,2,"a",3,"a",1,3125,0,"3a1"
12,"easy","explanation",5,"learning_control_trial_seq",1,"a",0,3,"a",1,"a",0,5163,0,"1a0"
12,"easy","explanation",6,"learning_control_trial_seq",0,"a",2,1,"a",0,"a",2,2910,0,"0a2"
12,"easy","explanation",7,"learning_control_trial_seq",2,"b",2,0,"a",2,"b",2,3424,0,"2b2"
12,"easy","explanation",8,"learning_control_trial_seq",2,"b",2,2,"b",2,"b",2,1611,0,"2b2"
12,"easy","explanation",9,"learning_control_trial_seq",2,"b",2,2,"b",2,"b",2,2579,0,"2b2"
12,"easy","explanation",10,"learning_control_trial_seq",2,"a",0,2,"b",2,"a",0,1701,0,"2a0"
12,"easy","explanation",11,"learning_control_trial_seq",0,"a",2,2,"a",0,"a",2,4303,0,"0a2"
12,"easy","explanation",12,"learning_control_trial_seq",2,"a",3,0,"a",2,"a",3,1383,0,"2a3"
12,"easy","explanation",13,"learning_control_trial_seq",3,"a",0,2,"a",3,"a",0,4527,0,"3a0"
12,"easy","explanation",14,"learning_control_trial_seq",0,"a",2,3,"a",0,"a",2,2711,0,"0a2"
12,"easy","explanation",15,"learning_control_trial_seq",2,"a",0,0,"a",2,"a",0,1340,0,"2a0"
12,"easy","explanation",16,"learning_control_trial_seq",0,"a",2,2,"a",0,"a",2,1985,0,"0a2"
12,"easy","explanation",17,"learning_control_trial_seq",2,"a",0,0,"a",2,"a",0,1287,0,"2a0"
12,"easy","explanation",18,"learning_control_trial_seq",0,"b",2,2,"a",0,"b",2,17930,0,"0b2"
12,"easy","explanation",19,"learning_control_trial_seq",2,"b",2,0,"b",2,"b",2,957,0,"2b2"
12,"easy","explanation",20,"learning_control_trial_seq",2,"b",2,2,"b",2,"b",2,1154,0,"2b2"
12,"easy","explanation",21,"learning_control_trial_seq",2,"a",0,2,"b",2,"a",0,971,0,"2a0"
12,"easy","explanation",22,"learning_control_trial_seq",0,"a",2,2,"a",0,"a",2,1149,0,"0a2"
12,"easy","explanation",23,"learning_control_trial_seq",2,"a",3,0,"a",2,"a",3,4978,0,"2a3"
12,"easy","explanation",24,"learning_control_trial_seq",3,"b",3,2,"a",3,"b",3,3519,0,"3b3"
12,"easy","explanation",25,"learning_control_trial_seq",3,"b",3,3,"b",3,"b",3,1560,0,"3b3"
12,"easy","explanation",26,"learning_control_trial_seq",3,"b",3,3,"b",3,"b",3,836,0,"3b3"
12,"easy","explanation",27,"learning_control_trial_seq",3,"a",0,3,"b",3,"a",0,2228,0,"3a0"
12,"easy","explanation",28,"learning_control_trial_seq",0,"a",2,3,"a",0,"a",2,3055,0,"0a2"
12,"easy","explanation",29,"learning_control_trial_seq",2,"a",3,0,"a",2,"a",3,6477,0,"2a3"
12,"easy","explanation",30,"learning_control_trial_seq",3,"a",1,2,"a",3,"a",1,1372,0,"3a1"
12,"easy","explanation",31,"learning_control_trial_seq",1,"a",0,3,"a",1,"a",0,4448,0,"1a0"
12,"easy","explanation",32,"learning_control_trial_seq",0,"b",2,1,"a",0,"b",2,684,0,"0b2"
12,"easy","explanation",33,"learning_control_trial_seq",2,"a",0,0,"b",2,"a",0,456,0,"2a0"
12,"easy","explanation",34,"learning_control_trial_seq",0,"b",2,2,"a",0,"b",2,3581,0,"0b2"
12,"easy","explanation",35,"learning_control_trial_seq",2,"a",0,0,"b",2,"a",0,1748,0,"2a0"
12,"easy","explanation",36,"learning_control_trial_seq",0,"b",2,2,"a",0,"b",2,1796,0,"0b2"
12,"easy","explanation",37,"learning_control_trial_seq",2,"a",0,0,"b",2,"a",0,1747,0,"2a0"
12,"easy","explanation",38,"learning_control_trial_seq",0,"a",2,2,"a",0,"a",2,2323,0,"0a2"
12,"easy","explanation",39,"learning_control_trial_seq",2,"a",3,0,"a",2,"a",3,1041,0,"2a3"
12,"easy","explanation",40,"learning_control_trial_seq",3,"a",1,2,"a",3,"a",1,1084,0,"3a1"
12,"easy","explanation",41,"learning_control_trial_seq",1,"a",0,3,"a",1,"a",0,1253,0,"1a0"
12,"easy","explanation",42,"learning_control_trial_seq",0,"b",2,1,"a",0,"b",2,1966,0,"0b2"
12,"easy","explanation",43,"learning_control_trial_seq",2,"b",2,0,"b",2,"b",2,3314,0,"2b2"
12,"easy","explanation",44,"learning_control_trial_seq",2,"a",0,2,"b",2,"a",0,1503,0,"2a0"
12,"easy","explanation",45,"learning_control_trial_seq",0,"a",2,2,"a",0,"a",2,1895,0,"0a2"
13,"hard","explanation",2,"trial_1_seq",2,"b",0,NA,NA,2,"b",0,2084,0,"2b0"
13,"hard","explanation",3,"trial_2_seq",0,"b",3,2,"b",0,"b",3,1989,0,"0b3"
13,"hard","explanation",4,"learning_control_trial_seq",3,"b",2,0,"b",3,"b",2,2407,0,"3b2"
13,"hard","explanation",5,"learning_control_trial_seq",2,"b",1,3,"b",2,"b",1,2378,0,"2b1"
13,"hard","explanation",6,"learning_control_trial_seq",1,"b",1,2,"b",1,"b",1,2821,0,"1b1"
13,"hard","explanation",7,"learning_control_trial_seq",1,"a",0,1,"b",1,"a",0,1824,0,"1a0"
13,"hard","explanation",8,"learning_control_trial_seq",0,"a",3,1,"a",0,"a",3,843,0,"0a3"
13,"hard","explanation",9,"learning_control_trial_seq",3,"a",2,0,"a",3,"a",2,2597,0,"3a2"
13,"hard","explanation",10,"learning_control_trial_seq",2,"a",2,3,"a",2,"a",2,872,0,"2a2"
13,"hard","explanation",11,"learning_control_trial_seq",2,"a",2,2,"a",2,"a",2,826,0,"2a2"
13,"hard","explanation",12,"learning_control_trial_seq",2,"a",2,2,"a",2,"a",2,1892,0,"2a2"
13,"hard","explanation",13,"learning_control_trial_seq",2,"a",2,2,"a",2,"a",2,595,0,"2a2"
13,"hard","explanation",14,"learning_control_trial_seq",2,"a",2,2,"a",2,"a",2,567,0,"2a2"
13,"hard","explanation",15,"learning_control_trial_seq",2,"b",1,2,"a",2,"b",1,943,0,"2b1"
13,"hard","explanation",16,"learning_control_trial_seq",1,"b",3,2,"b",1,"b",3,545,0,"1b3"
13,"hard","explanation",17,"learning_control_trial_seq",3,"b",3,1,"b",3,"b",3,830,0,"3b3"
13,"hard","explanation",18,"learning_control_trial_seq",3,"b",2,3,"b",3,"b",2,788,0,"3b2"
13,"hard","explanation",19,"learning_control_trial_seq",2,"b",1,3,"b",2,"b",1,2608,0,"2b1"
13,"hard","explanation",20,"learning_control_trial_seq",1,"b",1,2,"b",1,"b",1,334,0,"1b1"
13,"hard","explanation",21,"learning_control_trial_seq",1,"b",1,1,"b",1,"b",1,533,0,"1b1"
13,"hard","explanation",22,"learning_control_trial_seq",1,"b",3,1,"b",1,"b",3,703,0,"1b3"
13,"hard","explanation",23,"learning_control_trial_seq",3,"a",2,1,"b",3,"a",2,1051,0,"3a2"
13,"hard","explanation",24,"learning_control_trial_seq",2,"b",0,3,"a",2,"b",0,464,0,"2b0"
13,"hard","explanation",25,"learning_control_trial_seq",0,"a",3,2,"b",0,"a",3,794,0,"0a3"
13,"hard","explanation",26,"learning_control_trial_seq",3,"b",2,0,"a",3,"b",2,853,0,"3b2"
13,"hard","explanation",27,"learning_control_trial_seq",2,"b",0,3,"b",2,"b",0,1218,0,"2b0"
13,"hard","explanation",28,"learning_control_trial_seq",0,"a",3,2,"b",0,"a",3,1225,0,"0a3"
13,"hard","explanation",29,"learning_control_trial_seq",3,"a",0,0,"a",3,"a",0,383,0,"3a0"
13,"hard","explanation",30,"learning_control_trial_seq",0,"b",3,3,"a",0,"b",3,487,0,"0b3"
13,"hard","explanation",31,"learning_control_trial_seq",3,"b",3,0,"b",3,"b",3,564,0,"3b3"
13,"hard","explanation",32,"learning_control_trial_seq",3,"b",3,3,"b",3,"b",3,605,0,"3b3"
13,"hard","explanation",33,"learning_control_trial_seq",3,"b",2,3,"b",3,"b",2,416,0,"3b2"
13,"hard","explanation",34,"learning_control_trial_seq",2,"b",1,3,"b",2,"b",1,1012,0,"2b1"
13,"hard","explanation",35,"learning_control_trial_seq",1,"a",1,2,"b",1,"a",1,79.4,1,"1a1"
13,"hard","explanation",36,"learning_control_trial_seq",1,"a",1,1,"a",1,"a",1,1176,0,"1a1"
13,"hard","explanation",37,"learning_control_trial_seq",1,"a",1,1,"a",1,"a",1,448,0,"1a1"
13,"hard","explanation",38,"learning_control_trial_seq",1,"a",0,1,"a",1,"a",0,305,0,"1a0"
13,"hard","explanation",39,"learning_control_trial_seq",0,"a",3,1,"a",0,"a",3,1386,0,"0a3"
13,"hard","explanation",40,"learning_control_trial_seq",3,"b",2,0,"a",3,"b",2,437,0,"3b2"
13,"hard","explanation",41,"learning_control_trial_seq",2,"b",0,3,"b",2,"b",0,1947,0,"2b0"
13,"hard","explanation",42,"learning_control_trial_seq",0,"b",3,2,"b",0,"b",3,409,0,"0b3"
13,"hard","explanation",43,"learning_control_trial_seq",3,"a",2,0,"b",3,"a",2,1016,0,"3a2"
13,"hard","explanation",44,"learning_control_trial_seq",2,"a",2,3,"a",2,"a",2,883,0,"2a2"
13,"hard","explanation",45,"learning_control_trial_seq",2,"a",2,2,"a",2,"a",2,600,0,"2a2"
14,"hard","explanation",2,"trial_1_seq",0,"a",3,NA,NA,0,"a",3,9142,0,"0a3"
14,"hard","explanation",3,"trial_2_seq",3,"a",2,0,"a",3,"a",2,9790,0,"3a2"
14,"hard","explanation",4,"learning_control_trial_seq",2,"a",2,3,"a",2,"a",2,4104,0,"2a2"
14,"hard","explanation",5,"learning_control_trial_seq",2,"a",2,2,"a",2,"a",2,4890,0,"2a2"
14,"hard","explanation",6,"learning_control_trial_seq",2,"a",2,2,"a",2,"a",2,2876,0,"2a2"
14,"hard","explanation",7,"learning_control_trial_seq",2,"a",2,2,"a",2,"a",2,1013,0,"2a2"
14,"hard","explanation",8,"learning_control_trial_seq",2,"a",2,2,"a",2,"a",2,774,0,"2a2"
14,"hard","explanation",9,"learning_control_trial_seq",2,"b",1,2,"a",2,"b",1,787,0,"2b1"
14,"hard","explanation",10,"learning_control_trial_seq",1,"a",0,2,"b",1,"a",0,3386,0,"1a0"
14,"hard","explanation",11,"learning_control_trial_seq",0,"b",3,1,"a",0,"b",3,2967,0,"0b3"
14,"hard","explanation",12,"learning_control_trial_seq",3,"a",2,0,"b",3,"a",2,2164,0,"3a2"
14,"hard","explanation",13,"learning_control_trial_seq",2,"b",0,3,"a",2,"b",0,1312,0,"2b0"
14,"hard","explanation",14,"learning_control_trial_seq",0,"b",3,2,"b",0,"b",3,19099,0,"0b3"
14,"hard","explanation",15,"learning_control_trial_seq",3,"b",2,0,"b",3,"b",2,3621,0,"3b2"
14,"hard","explanation",16,"learning_control_trial_seq",2,"a",2,3,"b",2,"a",2,2480,0,"2a2"
14,"hard","explanation",17,"learning_control_trial_seq",2,"a",2,2,"a",2,"a",2,1216,0,"2a2"
14,"hard","explanation",18,"learning_control_trial_seq",2,"b",1,2,"a",2,"b",1,1019,0,"2b1"
14,"hard","explanation",19,"learning_control_trial_seq",1,"b",1,2,"b",1,"b",1,3039,0,"1b1"
14,"hard","explanation",20,"learning_control_trial_seq",1,"a",1,1,"b",1,"a",1,2319,0,"1a1"
14,"hard","explanation",21,"learning_control_trial_seq",1,"a",1,1,"a",1,"a",1,1205,0,"1a1"
14,"hard","explanation",22,"learning_control_trial_seq",1,"b",1,1,"a",1,"b",1,904,0,"1b1"
14,"hard","explanation",23,"learning_control_trial_seq",1,"b",1,1,"b",1,"b",1,1920,0,"1b1"
14,"hard","explanation",24,"learning_control_trial_seq",1,"b",3,1,"b",1,"b",3,1606,0,"1b3"
14,"hard","explanation",25,"learning_control_trial_seq",3,"b",2,1,"b",3,"b",2,2396,0,"3b2"
14,"hard","explanation",26,"learning_control_trial_seq",2,"a",2,3,"b",2,"a",2,1448,0,"2a2"
14,"hard","explanation",27,"learning_control_trial_seq",2,"a",2,2,"a",2,"a",2,943,0,"2a2"
14,"hard","explanation",28,"learning_control_trial_seq",2,"a",2,2,"a",2,"a",2,797,0,"2a2"
14,"hard","explanation",29,"learning_control_trial_seq",2,"a",2,2,"a",2,"a",2,784,0,"2a2"
14,"hard","explanation",30,"learning_control_trial_seq",2,"b",0,2,"a",2,"b",0,666,0,"2b0"
14,"hard","explanation",31,"learning_control_trial_seq",0,"a",3,2,"b",0,"a",3,2309,0,"0a3"
14,"hard","explanation",32,"learning_control_trial_seq",3,"b",3,0,"a",3,"b",3,3615,0,"3b3"
14,"hard","explanation",33,"learning_control_trial_seq",3,"b",3,3,"b",3,"b",3,968,0,"3b3"
14,"hard","explanation",34,"learning_control_trial_seq",3,"a",0,3,"b",3,"a",0,1453,0,"3a0"
14,"hard","explanation",35,"learning_control_trial_seq",0,"b",3,3,"a",0,"b",3,1182,0,"0b3"
14,"hard","explanation",36,"learning_control_trial_seq",3,"a",2,0,"b",3,"a",2,1080,0,"3a2"
14,"hard","explanation",37,"learning_control_trial_seq",2,"b",1,3,"a",2,"b",1,1057,0,"2b1"
14,"hard","explanation",38,"learning_control_trial_seq",1,"a",1,2,"b",1,"a",1,3252,0,"1a1"
14,"hard","explanation",39,"learning_control_trial_seq",1,"b",3,1,"a",1,"b",3,619,0,"1b3"
14,"hard","explanation",40,"learning_control_trial_seq",3,"a",0,1,"b",3,"a",0,1212,0,"3a0"
14,"hard","explanation",41,"learning_control_trial_seq",0,"a",3,3,"a",0,"a",3,3811,0,"0a3"
14,"hard","explanation",42,"learning_control_trial_seq",3,"b",2,0,"a",3,"b",2,2190,0,"3b2"
14,"hard","explanation",43,"learning_control_trial_seq",2,"a",2,3,"b",2,"a",2,3364,0,"2a2"
14,"hard","explanation",44,"learning_control_trial_seq",2,"a",2,2,"a",2,"a",2,2529,0,"2a2"
14,"hard","explanation",45,"learning_control_trial_seq",2,"b",1,2,"a",2,"b",1,807,0,"2b1"
15,"hard","explanation",2,"trial_1_seq",3,"b",3,NA,NA,3,"b",3,4405,0,"3b3"
15,"hard","explanation",3,"trial_2_seq",3,"a",0,3,"b",3,"a",0,4038,0,"3a0"
15,"hard","explanation",4,"learning_control_trial_seq",0,"b",3,3,"a",0,"b",3,3392,0,"0b3"
15,"hard","explanation",5,"learning_control_trial_seq",3,"a",2,0,"b",3,"a",2,1900,0,"3a2"
15,"hard","explanation",6,"learning_control_trial_seq",2,"a",2,3,"a",2,"a",2,2103,0,"2a2"
15,"hard","explanation",7,"learning_control_trial_seq",2,"a",2,2,"a",2,"a",2,1490,0,"2a2"
15,"hard","explanation",8,"learning_control_trial_seq",2,"b",0,2,"a",2,"b",0,1252,0,"2b0"
15,"hard","explanation",9,"learning_control_trial_seq",0,"b",3,2,"b",0,"b",3,1046,0,"0b3"
15,"hard","explanation",10,"learning_control_trial_seq",3,"a",2,0,"b",3,"a",2,2194,0,"3a2"
15,"hard","explanation",11,"learning_control_trial_seq",2,"b",1,3,"a",2,"b",1,4929,0,"2b1"
15,"hard","explanation",12,"learning_control_trial_seq",1,"b",1,2,"b",1,"b",1,1684,0,"1b1"
15,"hard","explanation",13,"learning_control_trial_seq",1,"b",1,1,"b",1,"b",1,3544,0,"1b1"
15,"hard","explanation",14,"learning_control_trial_seq",1,"a",0,1,"b",1,"a",0,1229,0,"1a0"
15,"hard","explanation",15,"learning_control_trial_seq",0,"a",3,1,"a",0,"a",3,1357,0,"0a3"
15,"hard","explanation",16,"learning_control_trial_seq",3,"a",0,0,"a",3,"a",0,974,0,"3a0"
15,"hard","explanation",17,"learning_control_trial_seq",0,"a",3,3,"a",0,"a",3,1121,0,"0a3"
15,"hard","explanation",18,"learning_control_trial_seq",3,"a",2,0,"a",3,"a",2,3010,0,"3a2"
15,"hard","explanation",19,"learning_control_trial_seq",2,"a",2,3,"a",2,"a",2,730,0,"2a2"
15,"hard","explanation",20,"learning_control_trial_seq",2,"a",2,2,"a",2,"a",2,1019,0,"2a2"
15,"hard","explanation",21,"learning_control_trial_seq",2,"b",1,2,"a",2,"b",1,1438,0,"2b1"
15,"hard","explanation",22,"learning_control_trial_seq",1,"b",1,2,"b",1,"b",1,840,0,"1b1"
15,"hard","explanation",23,"learning_control_trial_seq",1,"b",3,1,"b",1,"b",3,5308,0,"1b3"
15,"hard","explanation",24,"learning_control_trial_seq",3,"b",2,1,"b",3,"b",2,1676,0,"3b2"
15,"hard","explanation",25,"learning_control_trial_seq",2,"b",0,3,"b",2,"b",0,1165,0,"2b0"
15,"hard","explanation",26,"learning_control_trial_seq",0,"b",3,2,"b",0,"b",3,1644,0,"0b3"
15,"hard","explanation",27,"learning_control_trial_seq",3,"a",2,0,"b",3,"a",2,1217,0,"3a2"
15,"hard","explanation",28,"learning_control_trial_seq",2,"a",2,3,"a",2,"a",2,1101,0,"2a2"
15,"hard","explanation",29,"learning_control_trial_seq",2,"b",1,2,"a",2,"b",1,2282,0,"2b1"
15,"hard","explanation",30,"learning_control_trial_seq",1,"b",3,2,"b",1,"b",3,824,0,"1b3"
15,"hard","explanation",31,"learning_control_trial_seq",3,"a",0,1,"b",3,"a",0,858,0,"3a0"
15,"hard","explanation",32,"learning_control_trial_seq",0,"a",3,3,"a",0,"a",3,733,0,"0a3"
15,"hard","explanation",33,"learning_control_trial_seq",3,"b",3,0,"a",3,"b",3,4567,0,"3b3"
15,"hard","explanation",34,"learning_control_trial_seq",3,"b",2,3,"b",3,"b",2,329,0,"3b2"
15,"hard","explanation",35,"learning_control_trial_seq",2,"b",1,3,"b",2,"b",1,1731,0,"2b1"
15,"hard","explanation",36,"learning_control_trial_seq",1,"a",0,2,"b",1,"a",0,173,1,"1a0"
15,"hard","explanation",37,"learning_control_trial_seq",0,"b",3,1,"a",0,"b",3,2628,0,"0b3"
15,"hard","explanation",38,"learning_control_trial_seq",3,"b",2,0,"b",3,"b",2,382,0,"3b2"
15,"hard","explanation",39,"learning_control_trial_seq",2,"b",1,3,"b",2,"b",1,1152,0,"2b1"
15,"hard","explanation",40,"learning_control_trial_seq",1,"b",1,2,"b",1,"b",1,2074,0,"1b1"
15,"hard","explanation",41,"learning_control_trial_seq",1,"a",1,1,"b",1,"a",1,4122,0,"1a1"
15,"hard","explanation",42,"learning_control_trial_seq",1,"b",1,1,"a",1,"b",1,546,0,"1b1"
15,"hard","explanation",43,"learning_control_trial_seq",1,"b",1,1,"b",1,"b",1,871,0,"1b1"
15,"hard","explanation",44,"learning_control_trial_seq",1,"a",1,1,"b",1,"a",1,1182,0,"1a1"
15,"hard","explanation",45,"learning_control_trial_seq",1,"b",3,1,"a",1,"b",3,932,0,"1b3"
16,"hard","control",2,"trial_1_seq",0,"a",3,NA,NA,0,"a",3,2163,0,"0a3"
16,"hard","control",3,"trial_2_seq",3,"a",2,0,"a",3,"a",2,2527,0,"3a2"
16,"hard","control",4,"learning_control_trial_seq",2,"a",2,3,"a",2,"a",2,1866,0,"2a2"
16,"hard","control",5,"learning_control_trial_seq",2,"a",2,2,"a",2,"a",2,4987,0,"2a2"
16,"hard","control",6,"learning_control_trial_seq",2,"a",2,2,"a",2,"a",2,1575,0,"2a2"
16,"hard","control",7,"learning_control_trial_seq",2,"b",0,2,"a",2,"b",0,1519,0,"2b0"
16,"hard","control",8,"learning_control_trial_seq",0,"b",3,2,"b",0,"b",3,2554,0,"0b3"
16,"hard","control",9,"learning_control_trial_seq",3,"b",2,0,"b",3,"b",2,1270,0,"3b2"
16,"hard","control",10,"learning_control_trial_seq",2,"a",2,3,"b",2,"a",2,1808,0,"2a2"
16,"hard","control",11,"learning_control_trial_seq",2,"b",1,2,"a",2,"b",1,1508,0,"2b1"
16,"hard","control",12,"control_further_screen",1,"b",1,2,"b",1,"b",1,4320,0,"1b1"
16,"hard","control",13,"learning_control_trial_seq",0,"b",3,1,"a",0,"b",3,5543,0,"0b3"
16,"hard","control",14,"learning_control_trial_seq",3,"b",3,0,"b",3,"b",3,738,0,"3b3"
16,"hard","control",15,"learning_control_trial_seq",3,"b",2,3,"b",3,"b",2,781,0,"3b2"
16,"hard","control",16,"learning_control_trial_seq",2,"b",0,3,"b",2,"b",0,901,0,"2b0"
16,"hard","control",17,"control_further_screen",0,"b",3,2,"b",0,"b",3,1404,0,"0b3"
16,"hard","control",18,"learning_control_trial_seq",3,"a",0,3,"b",3,"a",0,1573,0,"3a0"
16,"hard","control",19,"learning_control_trial_seq",0,"a",3,3,"a",0,"a",3,533,0,"0a3"
16,"hard","control",20,"learning_control_trial_seq",3,"a",2,0,"a",3,"a",2,747,0,"3a2"
16,"hard","control",21,"learning_control_trial_seq",2,"a",2,3,"a",2,"a",2,885,0,"2a2"
16,"hard","control",22,"control_further_screen",2,"b",1,2,"a",2,"b",1,2512,0,"2b1"
16,"hard","control",23,"learning_control_trial_seq",3,"a",0,1,"b",3,"a",0,1670,0,"3a0"
16,"hard","control",24,"learning_control_trial_seq",0,"b",3,3,"a",0,"b",3,983,0,"0b3"
16,"hard","control",25,"learning_control_trial_seq",3,"a",2,0,"b",3,"a",2,1121,0,"3a2"
16,"hard","control",26,"learning_control_trial_seq",2,"b",1,3,"a",2,"b",1,891,0,"2b1"
16,"hard","control",27,"control_further_screen",1,"a",1,2,"b",1,"a",1,1035,0,"1a1"
16,"hard","control",28,"learning_control_trial_seq",3,"b",2,1,"b",3,"b",2,2944,0,"3b2"
16,"hard","control",29,"learning_control_trial_seq",2,"b",1,3,"b",2,"b",1,754,0,"2b1"
16,"hard","control",30,"learning_control_trial_seq",1,"a",1,2,"b",1,"a",1,1251,0,"1a1"
16,"hard","control",31,"learning_control_trial_seq",1,"b",1,1,"a",1,"b",1,1120,0,"1b1"
16,"hard","control",32,"control_further_screen",1,"b",3,1,"b",1,"b",3,1640,0,"1b3"
16,"hard","control",33,"learning_control_trial_seq",3,"a",2,3,"b",3,"a",2,806,0,"3a2"
16,"hard","control",34,"learning_control_trial_seq",2,"a",2,3,"a",2,"a",2,486,0,"2a2"
16,"hard","control",35,"learning_control_trial_seq",2,"a",2,2,"a",2,"a",2,421,0,"2a2"
16,"hard","control",36,"learning_control_trial_seq",2,"a",2,2,"a",2,"a",2,423,0,"2a2"
16,"hard","control",37,"learning_control_trial_seq",2,"a",2,2,"a",2,"a",2,455,0,"2a2"
16,"hard","control",38,"learning_control_trial_seq",2,"a",2,2,"a",2,"a",2,3205,0,"2a2"
16,"hard","control",39,"learning_control_trial_seq",2,"a",2,2,"a",2,"a",2,372,0,"2a2"
16,"hard","control",40,"learning_control_trial_seq",2,"a",2,2,"a",2,"a",2,144,1,"2a2"
16,"hard","control",41,"learning_control_trial_seq",2,"b",1,2,"a",2,"b",1,491,0,"2b1"
16,"hard","control",42,"learning_control_trial_seq",1,"a",1,2,"b",1,"a",1,1128,0,"1a1"
16,"hard","control",43,"learning_control_trial_seq",1,"a",0,1,"a",1,"a",0,319,0,"1a0"
16,"hard","control",44,"learning_control_trial_seq",0,"a",3,1,"a",0,"a",3,374,0,"0a3"
16,"hard","control",45,"learning_control_trial_seq",3,"a",0,0,"a",3,"a",0,503,0,"3a0"
17,"hard","control",2,"trial_1_seq",2,"b",0,NA,NA,2,"b",0,2004,0,"2b0"
17,"hard","control",3,"trial_2_seq",0,"a",3,2,"b",0,"a",3,2861,0,"0a3"
17,"hard","control",4,"learning_control_trial_seq",3,"a",0,0,"a",3,"a",0,1963,0,"3a0"
17,"hard","control",5,"learning_control_trial_seq",0,"a",3,3,"a",0,"a",3,1110,0,"0a3"
17,"hard","control",6,"learning_control_trial_seq",3,"a",2,0,"a",3,"a",2,1394,0,"3a2"
17,"hard","control",7,"learning_control_trial_seq",2,"b",0,3,"a",2,"b",0,2789,0,"2b0"
17,"hard","control",8,"learning_control_trial_seq",0,"b",3,2,"b",0,"b",3,932,0,"0b3"
17,"hard","control",9,"learning_control_trial_seq",3,"b",3,0,"b",3,"b",3,5200,0,"3b3"
17,"hard","control",10,"learning_control_trial_seq",3,"b",2,3,"b",3,"b",2,1158,0,"3b2"
17,"hard","control",11,"learning_control_trial_seq",2,"b",1,3,"b",2,"b",1,783,0,"2b1"
17,"hard","control",12,"control_further_screen",1,"b",1,2,"b",1,"b",1,1856,0,"1b1"
17,"hard","control",13,"learning_control_trial_seq",3,"a",2,1,"b",3,"a",2,3683,0,"3a2"
17,"hard","control",14,"learning_control_trial_seq",2,"a",2,3,"a",2,"a",2,1081,0,"2a2"
17,"hard","control",15,"learning_control_trial_seq",2,"a",2,2,"a",2,"a",2,627,0,"2a2"
17,"hard","control",16,"learning_control_trial_seq",2,"a",2,2,"a",2,"a",2,647,0,"2a2"
17,"hard","control",17,"control_further_screen",2,"b",1,2,"a",2,"b",1,585,0,"2b1"
17,"hard","control",18,"learning_control_trial_seq",3,"a",2,1,"b",3,"a",2,1362,0,"3a2"
17,"hard","control",19,"learning_control_trial_seq",2,"b",1,3,"a",2,"b",1,1182,0,"2b1"
17,"hard","control",20,"learning_control_trial_seq",1,"b",1,2,"b",1,"b",1,535,0,"1b1"
17,"hard","control",21,"learning_control_trial_seq",1,"b",3,1,"b",1,"b",3,495,0,"1b3"
17,"hard","control",22,"learning_control_trial_seq",3,"a",0,1,"b",3,"a",0,346,0,"3a0"
17,"hard","control",23,"control_further_screen",0,"a",3,3,"a",0,"a",3,884,0,"0a3"
17,"hard","control",24,"learning_control_trial_seq",0,"a",3,3,"a",0,"a",3,4700,0,"0a3"
17,"hard","control",25,"learning_control_trial_seq",3,"a",0,0,"a",3,"a",0,4377,0,"3a0"
17,"hard","control",26,"learning_control_trial_seq",0,"b",3,3,"a",0,"b",3,1475,0,"0b3"
17,"hard","control",27,"control_further_screen",3,"b",2,0,"b",3,"b",2,3755,0,"3b2"
17,"hard","control",28,"learning_control_trial_seq",2,"a",2,2,"a",2,"a",2,3369,0,"2a2"
17,"hard","control",29,"learning_control_trial_seq",2,"b",0,2,"a",2,"b",0,1105,0,"2b0"
17,"hard","control",30,"learning_control_trial_seq",0,"b",3,2,"b",0,"b",3,768,0,"0b3"
17,"hard","control",31,"learning_control_trial_seq",3,"b",2,0,"b",3,"b",2,3462,0,"3b2"
17,"hard","control",32,"control_further_screen",2,"b",1,3,"b",2,"b",1,2084,0,"2b1"
17,"hard","control",33,"learning_control_trial_seq",3,"a",0,1,"b",3,"a",0,5824,0,"3a0"
17,"hard","control",34,"learning_control_trial_seq",0,"b",3,3,"a",0,"b",3,1400,0,"0b3"
17,"hard","control",35,"learning_control_trial_seq",3,"a",2,0,"b",3,"a",2,3908,0,"3a2"
17,"hard","control",36,"learning_control_trial_seq",2,"b",0,3,"a",2,"b",0,1694,0,"2b0"
17,"hard","control",37,"learning_control_trial_seq",0,"a",3,2,"b",0,"a",3,2767,0,"0a3"
17,"hard","control",38,"learning_control_trial_seq",3,"b",3,0,"a",3,"b",3,2232,0,"3b3"
17,"hard","control",39,"learning_control_trial_seq",3,"a",2,3,"b",3,"a",2,1978,0,"3a2"
17,"hard","control",40,"learning_control_trial_seq",2,"b",1,3,"a",2,"b",1,1992,0,"2b1"
17,"hard","control",41,"learning_control_trial_seq",1,"b",1,2,"b",1,"b",1,4532,0,"1b1"
17,"hard","control",42,"learning_control_trial_seq",1,"a",1,1,"b",1,"a",1,818,0,"1a1"
17,"hard","control",43,"learning_control_trial_seq",1,"a",0,1,"a",1,"a",0,2277,0,"1a0"
17,"hard","control",44,"learning_control_trial_seq",0,"a",3,1,"a",0,"a",3,2430,0,"0a3"
17,"hard","control",45,"learning_control_trial_seq",3,"a",2,0,"a",3,"a",2,757,0,"3a2"
18,"hard","control",2,"trial_1_seq",0,"b",3,NA,NA,0,"b",3,2147,0,"0b3"
18,"hard","control",3,"trial_2_seq",3,"b",3,0,"b",3,"b",3,1069,0,"3b3"
18,"hard","control",4,"learning_control_trial_seq",3,"a",0,3,"b",3,"a",0,745,0,"3a0"
18,"hard","control",5,"learning_control_trial_seq",0,"a",3,3,"a",0,"a",3,554,0,"0a3"
18,"hard","control",6,"learning_control_trial_seq",3,"a",2,0,"a",3,"a",2,981,0,"3a2"
18,"hard","control",7,"learning_control_trial_seq",2,"a",2,3,"a",2,"a",2,883,0,"2a2"
18,"hard","control",8,"learning_control_trial_seq",2,"a",2,2,"a",2,"a",2,1203,0,"2a2"
18,"hard","control",9,"learning_control_trial_seq",2,"b",0,2,"a",2,"b",0,661,0,"2b0"
18,"hard","control",10,"learning_control_trial_seq",0,"b",3,2,"b",0,"b",3,675,0,"0b3"
18,"hard","control",11,"learning_control_trial_seq",3,"a",2,0,"b",3,"a",2,701,0,"3a2"
18,"hard","control",12,"control_further_screen",2,"b",1,3,"a",2,"b",1,632,0,"2b1"
18,"hard","control",13,"learning_control_trial_seq",0,"a",3,1,"a",0,"a",3,3030,0,"0a3"
18,"hard","control",14,"learning_control_trial_seq",3,"a",0,0,"a",3,"a",0,547,0,"3a0"
18,"hard","control",15,"learning_control_trial_seq",0,"a",3,3,"a",0,"a",3,660,0,"0a3"
18,"hard","control",16,"learning_control_trial_seq",3,"a",2,0,"a",3,"a",2,644,0,"3a2"
18,"hard","control",17,"learning_control_trial_seq",2,"b",0,3,"a",2,"b",0,1300,0,"2b0"
18,"hard","control",18,"control_further_screen",0,"b",3,2,"b",0,"b",3,481,0,"0b3"
18,"hard","control",19,"learning_control_trial_seq",3,"b",3,3,"b",3,"b",3,998,0,"3b3"
18,"hard","control",20,"learning_control_trial_seq",3,"b",2,3,"b",3,"b",2,462,0,"3b2"
18,"hard","control",21,"learning_control_trial_seq",2,"a",2,3,"b",2,"a",2,640,0,"2a2"
18,"hard","control",22,"control_further_screen",2,"a",2,2,"a",2,"a",2,813,0,"2a2"
18,"hard","control",23,"learning_control_trial_seq",0,"b",3,2,"b",0,"b",3,876,0,"0b3"
18,"hard","control",24,"learning_control_trial_seq",3,"a",0,0,"b",3,"a",0,462,0,"3a0"
18,"hard","control",25,"learning_control_trial_seq",0,"b",3,3,"a",0,"b",3,740,0,"0b3"
18,"hard","control",26,"learning_control_trial_seq",3,"b",2,0,"b",3,"b",2,605,0,"3b2"
18,"hard","control",27,"control_further_screen",2,"b",1,3,"b",2,"b",1,1243,0,"2b1"
18,"hard","control",28,"learning_control_trial_seq",0,"a",3,1,"a",0,"a",3,927,0,"0a3"
18,"hard","control",29,"learning_control_trial_seq",3,"a",2,0,"a",3,"a",2,575,0,"3a2"
18,"hard","control",30,"learning_control_trial_seq",2,"a",2,3,"a",2,"a",2,493,0,"2a2"
18,"hard","control",31,"learning_control_trial_seq",2,"b",1,2,"a",2,"b",1,561,0,"2b1"
18,"hard","control",32,"control_further_screen",1,"a",1,2,"b",1,"a",1,262,1,"1a1"
18,"hard","control",33,"learning_control_trial_seq",3,"a",2,1,"b",3,"a",2,1538,0,"3a2"
18,"hard","control",34,"learning_control_trial_seq",2,"b",0,3,"a",2,"b",0,332,0,"2b0"
18,"hard","control",35,"learning_control_trial_seq",0,"a",3,2,"b",0,"a",3,264,1,"0a3"
18,"hard","control",36,"learning_control_trial_seq",3,"b",2,0,"a",3,"b",2,322,0,"3b2"
18,"hard","control",37,"learning_control_trial_seq",2,"a",2,3,"b",2,"a",2,477,0,"2a2"
18,"hard","control",38,"learning_control_trial_seq",2,"a",2,2,"a",2,"a",2,1133,0,"2a2"
18,"hard","control",39,"learning_control_trial_seq",2,"b",0,2,"a",2,"b",0,534,0,"2b0"
18,"hard","control",40,"learning_control_trial_seq",0,"b",3,2,"b",0,"b",3,493,0,"0b3"
18,"hard","control",41,"learning_control_trial_seq",3,"a",0,0,"b",3,"a",0,311,0,"3a0"
18,"hard","control",42,"learning_control_trial_seq",0,"a",3,3,"a",0,"a",3,381,0,"0a3"
18,"hard","control",43,"learning_control_trial_seq",3,"b",2,0,"a",3,"b",2,284,1,"3b2"
18,"hard","control",44,"learning_control_trial_seq",2,"a",2,3,"b",2,"a",2,374,0,"2a2"
18,"hard","control",45,"learning_control_trial_seq",2,"a",2,2,"a",2,"a",2,393,0,"2a2"
19,"easy","explanation",2,"trial_1_seq",2,"b",2,NA,NA,2,"b",2,4161,0,"2b2"
19,"easy","explanation",3,"trial_2_seq",2,"a",0,2,"b",2,"a",0,6344,0,"2a0"
19,"easy","explanation",4,"learning_control_trial_seq",0,"a",2,2,"a",0,"a",2,3412,0,"0a2"
19,"easy","explanation",5,"learning_control_trial_seq",2,"b",2,0,"a",2,"b",2,2977,0,"2b2"
19,"easy","explanation",6,"learning_control_trial_seq",2,"a",3,2,"b",2,"a",3,1290,0,"2a3"
19,"easy","explanation",7,"learning_control_trial_seq",3,"a",1,2,"a",3,"a",1,3986,0,"3a1"
19,"easy","explanation",8,"learning_control_trial_seq",1,"a",0,3,"a",1,"a",0,669,0,"1a0"
19,"easy","explanation",9,"learning_control_trial_seq",0,"a",2,1,"a",0,"a",2,1434,0,"0a2"
19,"easy","explanation",10,"learning_control_trial_seq",2,"a",3,0,"a",2,"a",3,1405,0,"2a3"
19,"easy","explanation",11,"learning_control_trial_seq",3,"a",1,2,"a",3,"a",1,704,0,"3a1"
19,"easy","explanation",12,"learning_control_trial_seq",1,"a",0,3,"a",1,"a",0,3252,0,"1a0"
19,"easy","explanation",13,"learning_control_trial_seq",0,"b",2,1,"a",0,"b",2,7335,0,"0b2"
19,"easy","explanation",14,"learning_control_trial_seq",2,"b",2,0,"b",2,"b",2,3140,0,"2b2"
19,"easy","explanation",15,"learning_control_trial_seq",2,"a",0,2,"b",2,"a",0,1853,0,"2a0"
19,"easy","explanation",16,"learning_control_trial_seq",0,"a",2,2,"a",0,"a",2,583,0,"0a2"
19,"easy","explanation",17,"learning_control_trial_seq",2,"b",2,0,"a",2,"b",2,1937,0,"2b2"
19,"easy","explanation",18,"learning_control_trial_seq",2,"a",0,2,"b",2,"a",0,3803,0,"2a0"
19,"easy","explanation",19,"learning_control_trial_seq",0,"b",2,2,"a",0,"b",2,812,0,"0b2"
19,"easy","explanation",20,"learning_control_trial_seq",2,"a",3,0,"b",2,"a",3,1227,0,"2a3"
19,"easy","explanation",21,"learning_control_trial_seq",3,"b",3,2,"a",3,"b",3,867,0,"3b3"
19,"easy","explanation",22,"learning_control_trial_seq",3,"a",0,3,"b",3,"a",0,435,0,"3a0"
19,"easy","explanation",23,"learning_control_trial_seq",0,"a",2,3,"a",0,"a",2,2669,0,"0a2"
19,"easy","explanation",24,"learning_control_trial_seq",2,"b",2,0,"a",2,"b",2,5368,0,"2b2"
19,"easy","explanation",25,"learning_control_trial_seq",2,"b",2,2,"b",2,"b",2,530,0,"2b2"
19,"easy","explanation",26,"learning_control_trial_seq",2,"a",3,2,"b",2,"a",3,215,1,"2a3"
19,"easy","explanation",27,"learning_control_trial_seq",3,"a",1,2,"a",3,"a",1,761,0,"3a1"
19,"easy","explanation",28,"learning_control_trial_seq",1,"a",0,3,"a",1,"a",0,352,0,"1a0"
19,"easy","explanation",29,"learning_control_trial_seq",0,"a",2,1,"a",0,"a",2,7643,0,"0a2"
19,"easy","explanation",30,"learning_control_trial_seq",2,"a",0,0,"a",2,"a",0,1752,0,"2a0"
19,"easy","explanation",31,"learning_control_trial_seq",0,"b",2,2,"a",0,"b",2,1441,0,"0b2"
19,"easy","explanation",32,"learning_control_trial_seq",2,"b",2,0,"b",2,"b",2,394,0,"2b2"
19,"easy","explanation",33,"learning_control_trial_seq",2,"b",2,2,"b",2,"b",2,1633,0,"2b2"
19,"easy","explanation",34,"learning_control_trial_seq",2,"b",2,2,"b",2,"b",2,590,0,"2b2"
19,"easy","explanation",35,"learning_control_trial_seq",2,"b",2,2,"b",2,"b",2,1379,0,"2b2"
19,"easy","explanation",36,"learning_control_trial_seq",2,"b",2,2,"b",2,"b",2,384,0,"2b2"
19,"easy","explanation",37,"learning_control_trial_seq",2,"b",2,2,"b",2,"b",2,420,0,"2b2"
19,"easy","explanation",38,"learning_control_trial_seq",2,"b",2,2,"b",2,"b",2,235,1,"2b2"
19,"easy","explanation",39,"learning_control_trial_seq",2,"b",2,2,"b",2,"b",2,858,0,"2b2"
19,"easy","explanation",40,"learning_control_trial_seq",2,"b",2,2,"b",2,"b",2,645,0,"2b2"
19,"easy","explanation",41,"learning_control_trial_seq",2,"a",0,2,"b",2,"a",0,1057,0,"2a0"
19,"easy","explanation",42,"learning_control_trial_seq",0,"b",2,2,"a",0,"b",2,973,0,"0b2"
19,"easy","explanation",43,"learning_control_trial_seq",2,"b",2,0,"b",2,"b",2,2019,0,"2b2"
19,"easy","explanation",44,"learning_control_trial_seq",2,"a",0,2,"b",2,"a",0,1952,0,"2a0"
19,"easy","explanation",45,"learning_control_trial_seq",0,"a",2,2,"a",0,"a",2,335,0,"0a2"
20,"easy","explanation",2,"trial_1_seq",3,"a",1,NA,NA,3,"a",1,5329,0,"3a1"
20,"easy","explanation",3,"trial_2_seq",1,"a",0,3,"a",1,"a",0,3607,0,"1a0"
20,"easy","explanation",4,"learning_control_trial_seq",0,"a",2,1,"a",0,"a",2,3822,0,"0a2"
20,"easy","explanation",5,"learning_control_trial_seq",2,"a",0,0,"a",2,"a",0,2331,0,"2a0"
20,"easy","explanation",6,"learning_control_trial_seq",0,"b",2,2,"a",0,"b",2,2460,0,"0b2"
20,"easy","explanation",7,"learning_control_trial_seq",2,"b",2,0,"b",2,"b",2,1320,0,"2b2"
20,"easy","explanation",8,"learning_control_trial_seq",2,"b",2,2,"b",2,"b",2,849,0,"2b2"
20,"easy","explanation",9,"learning_control_trial_seq",2,"b",2,2,"b",2,"b",2,724,0,"2b2"
20,"easy","explanation",10,"learning_control_trial_seq",2,"a",0,2,"b",2,"a",0,2052,0,"2a0"
20,"easy","explanation",11,"learning_control_trial_seq",0,"b",2,2,"a",0,"b",2,972,0,"0b2"
20,"easy","explanation",12,"learning_control_trial_seq",2,"a",3,0,"b",2,"a",3,993,0,"2a3"
20,"easy","explanation",13,"learning_control_trial_seq",3,"b",3,2,"a",3,"b",3,3858,0,"3b3"
20,"easy","explanation",14,"learning_control_trial_seq",3,"b",3,3,"b",3,"b",3,2958,0,"3b3"
20,"easy","explanation",15,"learning_control_trial_seq",3,"b",3,3,"b",3,"b",3,583,0,"3b3"
20,"easy","explanation",16,"learning_control_trial_seq",3,"a",0,3,"b",3,"a",0,2241,0,"3a0"
20,"easy","explanation",17,"learning_control_trial_seq",0,"a",2,3,"a",0,"a",2,533,0,"0a2"
20,"easy","explanation",18,"learning_control_trial_seq",2,"a",0,0,"a",2,"a",0,2398,0,"2a0"
20,"easy","explanation",19,"learning_control_trial_seq",0,"a",2,2,"a",0,"a",2,700,0,"0a2"
20,"easy","explanation",20,"learning_control_trial_seq",2,"a",3,0,"a",2,"a",3,585,0,"2a3"
20,"easy","explanation",21,"learning_control_trial_seq",3,"b",3,2,"a",3,"b",3,1823,0,"3b3"
20,"easy","explanation",22,"learning_control_trial_seq",3,"b",3,3,"b",3,"b",3,463,0,"3b3"
20,"easy","explanation",23,"learning_control_trial_seq",3,"b",3,3,"b",3,"b",3,515,0,"3b3"
20,"easy","explanation",24,"learning_control_trial_seq",3,"b",3,3,"b",3,"b",3,575,0,"3b3"
20,"easy","explanation",25,"learning_control_trial_seq",3,"b",3,3,"b",3,"b",3,697,0,"3b3"
20,"easy","explanation",26,"learning_control_trial_seq",3,"a",1,3,"b",3,"a",1,1039,0,"3a1"
20,"easy","explanation",27,"learning_control_trial_seq",1,"a",0,3,"a",1,"a",0,825,0,"1a0"
20,"easy","explanation",28,"learning_control_trial_seq",0,"b",2,1,"a",0,"b",2,4458,0,"0b2"
20,"easy","explanation",29,"learning_control_trial_seq",2,"b",2,0,"b",2,"b",2,837,0,"2b2"
20,"easy","explanation",30,"learning_control_trial_seq",2,"b",2,2,"b",2,"b",2,405,0,"2b2"
20,"easy","explanation",31,"learning_control_trial_seq",2,"b",2,2,"b",2,"b",2,544,0,"2b2"
20,"easy","explanation",32,"learning_control_trial_seq",2,"b",2,2,"b",2,"b",2,240,1,"2b2"
20,"easy","explanation",33,"learning_control_trial_seq",2,"b",2,2,"b",2,"b",2,1388,0,"2b2"
20,"easy","explanation",34,"learning_control_trial_seq",2,"b",2,2,"b",2,"b",2,404,0,"2b2"
20,"easy","explanation",35,"learning_control_trial_seq",2,"b",2,2,"b",2,"b",2,455,0,"2b2"
20,"easy","explanation",36,"learning_control_trial_seq",2,"a",3,2,"b",2,"a",3,590,0,"2a3"
20,"easy","explanation",37,"learning_control_trial_seq",3,"a",1,2,"a",3,"a",1,489,0,"3a1"
20,"easy","explanation",38,"learning_control_trial_seq",1,"a",0,3,"a",1,"a",0,1204,0,"1a0"
20,"easy","explanation",39,"learning_control_trial_seq",0,"a",2,1,"a",0,"a",2,2246,0,"0a2"
20,"easy","explanation",40,"learning_control_trial_seq",2,"a",0,0,"a",2,"a",0,520,0,"2a0"
20,"easy","explanation",41,"learning_control_trial_seq",0,"b",2,2,"a",0,"b",2,947,0,"0b2"
20,"easy","explanation",42,"learning_control_trial_seq",2,"b",2,0,"b",2,"b",2,399,0,"2b2"
20,"easy","explanation",43,"learning_control_trial_seq",2,"b",2,2,"b",2,"b",2,568,0,"2b2"
20,"easy","explanation",44,"learning_control_trial_seq",2,"b",2,2,"b",2,"b",2,455,0,"2b2"
20,"easy","explanation",45,"learning_control_trial_seq",2,"b",2,2,"b",2,"b",2,518,0,"2b2"
21,"easy","explanation",2,"trial_1_seq",3,"a",1,NA,NA,3,"a",1,2346,0,"3a1"
21,"easy","explanation",3,"trial_2_seq",1,"a",0,3,"a",1,"a",0,1259,0,"1a0"
21,"easy","explanation",4,"learning_control_trial_seq",0,"a",2,1,"a",0,"a",2,1759,0,"0a2"
21,"easy","explanation",5,"learning_control_trial_seq",2,"a",0,0,"a",2,"a",0,1916,0,"2a0"
21,"easy","explanation",6,"learning_control_trial_seq",0,"a",2,2,"a",0,"a",2,3110,0,"0a2"
21,"easy","explanation",7,"learning_control_trial_seq",2,"b",2,0,"a",2,"b",2,3362,0,"2b2"
21,"easy","explanation",8,"learning_control_trial_seq",2,"b",2,2,"b",2,"b",2,1238,0,"2b2"
21,"easy","explanation",9,"learning_control_trial_seq",2,"b",2,2,"b",2,"b",2,950,0,"2b2"
21,"easy","explanation",10,"learning_control_trial_seq",2,"b",2,2,"b",2,"b",2,715,0,"2b2"
21,"easy","explanation",11,"learning_control_trial_seq",2,"b",2,2,"b",2,"b",2,593,0,"2b2"
21,"easy","explanation",12,"learning_control_trial_seq",2,"b",2,2,"b",2,"b",2,548,0,"2b2"
21,"easy","explanation",13,"learning_control_trial_seq",2,"a",3,2,"b",2,"a",3,1027,0,"2a3"
21,"easy","explanation",14,"learning_control_trial_seq",3,"b",3,2,"a",3,"b",3,702,0,"3b3"
21,"easy","explanation",15,"learning_control_trial_seq",3,"a",0,3,"b",3,"a",0,3796,0,"3a0"
21,"easy","explanation",16,"learning_control_trial_seq",0,"b",2,3,"a",0,"b",2,1588,0,"0b2"
21,"easy","explanation",17,"learning_control_trial_seq",2,"a",0,0,"b",2,"a",0,6097,0,"2a0"
21,"easy","explanation",18,"learning_control_trial_seq",0,"b",2,2,"a",0,"b",2,893,0,"0b2"
21,"easy","explanation",19,"learning_control_trial_seq",2,"b",2,0,"b",2,"b",2,2773,0,"2b2"
21,"easy","explanation",20,"learning_control_trial_seq",2,"a",0,2,"b",2,"a",0,1368,0,"2a0"
21,"easy","explanation",21,"learning_control_trial_seq",0,"a",2,2,"a",0,"a",2,911,0,"0a2"
21,"easy","explanation",22,"learning_control_trial_seq",2,"b",2,0,"a",2,"b",2,905,0,"2b2"
21,"easy","explanation",23,"learning_control_trial_seq",2,"a",3,2,"b",2,"a",3,3566,0,"2a3"
21,"easy","explanation",24,"learning_control_trial_seq",3,"a",0,2,"a",3,"a",0,737,0,"3a0"
21,"easy","explanation",25,"learning_control_trial_seq",0,"a",2,3,"a",0,"a",2,1920,0,"0a2"
21,"easy","explanation",26,"learning_control_trial_seq",2,"a",0,0,"a",2,"a",0,1920,0,"2a0"
21,"easy","explanation",27,"learning_control_trial_seq",0,"a",2,2,"a",0,"a",2,1015,0,"0a2"
21,"easy","explanation",28,"learning_control_trial_seq",2,"b",2,0,"a",2,"b",2,2571,0,"2b2"
21,"easy","explanation",29,"learning_control_trial_seq",2,"b",2,2,"b",2,"b",2,1239,0,"2b2"
21,"easy","explanation",30,"learning_control_trial_seq",2,"b",2,2,"b",2,"b",2,608,0,"2b2"
21,"easy","explanation",31,"learning_control_trial_seq",2,"a",0,2,"b",2,"a",0,1818,0,"2a0"
21,"easy","explanation",32,"learning_control_trial_seq",0,"a",2,2,"a",0,"a",2,1238,0,"0a2"
21,"easy","explanation",33,"learning_control_trial_seq",2,"b",2,0,"a",2,"b",2,3443,0,"2b2"
21,"easy","explanation",34,"learning_control_trial_seq",2,"b",2,2,"b",2,"b",2,1741,0,"2b2"
21,"easy","explanation",35,"learning_control_trial_seq",2,"b",2,2,"b",2,"b",2,1604,0,"2b2"
21,"easy","explanation",36,"learning_control_trial_seq",2,"a",0,2,"b",2,"a",0,717,0,"2a0"
21,"easy","explanation",37,"learning_control_trial_seq",0,"b",2,2,"a",0,"b",2,1547,0,"0b2"
21,"easy","explanation",38,"learning_control_trial_seq",2,"a",3,0,"b",2,"a",3,1421,0,"2a3"
21,"easy","explanation",39,"learning_control_trial_seq",3,"b",3,2,"a",3,"b",3,1320,0,"3b3"
21,"easy","explanation",40,"learning_control_trial_seq",3,"b",3,3,"b",3,"b",3,1940,0,"3b3"
21,"easy","explanation",41,"learning_control_trial_seq",3,"b",3,3,"b",3,"b",3,1453,0,"3b3"
21,"easy","explanation",42,"learning_control_trial_seq",3,"a",1,3,"b",3,"a",1,751,0,"3a1"
21,"easy","explanation",43,"learning_control_trial_seq",1,"a",0,3,"a",1,"a",0,1637,0,"1a0"
21,"easy","explanation",44,"learning_control_trial_seq",0,"b",2,1,"a",0,"b",2,2106,0,"0b2"
21,"easy","explanation",45,"learning_control_trial_seq",2,"b",2,0,"b",2,"b",2,1358,0,"2b2"
22,"easy","control",2,"trial_1_seq",2,"a",0,NA,NA,2,"a",0,3442,0,"2a0"
22,"easy","control",3,"trial_2_seq",0,"a",2,2,"a",0,"a",2,1965,0,"0a2"
22,"easy","control",4,"learning_control_trial_seq",2,"b",2,0,"a",2,"b",2,4241,0,"2b2"
22,"easy","control",5,"learning_control_trial_seq",2,"b",2,2,"b",2,"b",2,3207,0,"2b2"
22,"easy","control",6,"learning_control_trial_seq",2,"b",2,2,"b",2,"b",2,1136,0,"2b2"
22,"easy","control",7,"learning_control_trial_seq",2,"b",2,2,"b",2,"b",2,1020,0,"2b2"
22,"easy","control",8,"learning_control_trial_seq",2,"a",3,2,"b",2,"a",3,2381,0,"2a3"
22,"easy","control",9,"learning_control_trial_seq",3,"b",3,2,"a",3,"b",3,3221,0,"3b3"
22,"easy","control",10,"learning_control_trial_seq",3,"a",1,3,"b",3,"a",1,2547,0,"3a1"
22,"easy","control",11,"learning_control_trial_seq",1,"a",0,3,"a",1,"a",0,6433,0,"1a0"
22,"easy","control",12,"control_further_screen",0,"a",2,1,"a",0,"a",2,2788,0,"0a2"
22,"easy","control",13,"learning_control_trial_seq",0,"b",2,2,"a",0,"b",2,4143,0,"0b2"
22,"easy","control",14,"learning_control_trial_seq",2,"a",3,0,"b",2,"a",3,2567,0,"2a3"
22,"easy","control",15,"learning_control_trial_seq",3,"a",1,2,"a",3,"a",1,2223,0,"3a1"
22,"easy","control",16,"learning_control_trial_seq",1,"a",0,3,"a",1,"a",0,891,0,"1a0"
22,"easy","control",17,"control_further_screen",0,"a",2,1,"a",0,"a",2,829,0,"0a2"
22,"easy","control",18,"learning_control_trial_seq",0,"b",2,2,"a",0,"b",2,2869,0,"0b2"
22,"easy","control",19,"learning_control_trial_seq",2,"b",2,0,"b",2,"b",2,1417,0,"2b2"
22,"easy","control",20,"learning_control_trial_seq",2,"b",2,2,"b",2,"b",2,3200,0,"2b2"
22,"easy","control",21,"learning_control_trial_seq",2,"b",2,2,"b",2,"b",2,1880,0,"2b2"
22,"easy","control",22,"control_further_screen",2,"b",2,2,"b",2,"b",2,974,0,"2b2"
22,"easy","control",23,"learning_control_trial_seq",3,"a",0,2,"a",3,"a",0,2541,0,"3a0"
22,"easy","control",24,"learning_control_trial_seq",0,"a",2,3,"a",0,"a",2,879,0,"0a2"
22,"easy","control",25,"learning_control_trial_seq",2,"a",0,0,"a",2,"a",0,966,0,"2a0"
22,"easy","control",26,"learning_control_trial_seq",0,"b",2,2,"a",0,"b",2,874,0,"0b2"
22,"easy","control",27,"learning_control_trial_seq",2,"a",0,0,"b",2,"a",0,999,0,"2a0"
22,"easy","control",28,"control_further_screen",0,"b",2,2,"a",0,"b",2,1096,0,"0b2"
22,"easy","control",29,"learning_control_trial_seq",3,"a",0,2,"a",3,"a",0,4476,0,"3a0"
22,"easy","control",30,"learning_control_trial_seq",0,"b",2,3,"a",0,"b",2,850,0,"0b2"
22,"easy","control",31,"learning_control_trial_seq",2,"b",2,0,"b",2,"b",2,985,0,"2b2"
22,"easy","control",32,"learning_control_trial_seq",2,"a",0,2,"b",2,"a",0,799,0,"2a0"
22,"easy","control",33,"control_further_screen",0,"b",2,2,"a",0,"b",2,841,0,"0b2"
22,"easy","control",34,"learning_control_trial_seq",2,"b",2,2,"b",2,"b",2,2591,0,"2b2"
22,"easy","control",35,"learning_control_trial_seq",2,"b",2,2,"b",2,"b",2,742,0,"2b2"
22,"easy","control",36,"learning_control_trial_seq",2,"a",3,2,"b",2,"a",3,967,0,"2a3"
22,"easy","control",37,"learning_control_trial_seq",3,"a",1,2,"a",3,"a",1,604,0,"3a1"
22,"easy","control",38,"learning_control_trial_seq",1,"a",0,3,"a",1,"a",0,655,0,"1a0"
22,"easy","control",39,"learning_control_trial_seq",0,"a",2,1,"a",0,"a",2,671,0,"0a2"
22,"easy","control",40,"learning_control_trial_seq",2,"b",2,0,"a",2,"b",2,625,0,"2b2"
22,"easy","control",41,"learning_control_trial_seq",2,"a",0,2,"b",2,"a",0,674,0,"2a0"
22,"easy","control",42,"learning_control_trial_seq",0,"b",2,2,"a",0,"b",2,603,0,"0b2"
22,"easy","control",43,"learning_control_trial_seq",2,"b",2,0,"b",2,"b",2,569,0,"2b2"
22,"easy","control",44,"learning_control_trial_seq",2,"a",0,2,"b",2,"a",0,1311,0,"2a0"
22,"easy","control",45,"learning_control_trial_seq",0,"a",2,2,"a",0,"a",2,837,0,"0a2"
23,"easy","control",2,"trial_1_seq",1,"b",0,NA,NA,1,"b",0,3090,0,"1b0"
23,"easy","control",3,"trial_2_seq",0,"a",2,1,"b",0,"a",2,3223,0,"0a2"
23,"easy","control",4,"learning_control_trial_seq",2,"b",2,0,"a",2,"b",2,3295,0,"2b2"
23,"easy","control",5,"learning_control_trial_seq",2,"b",2,2,"b",2,"b",2,1452,0,"2b2"
23,"easy","control",6,"learning_control_trial_seq",2,"a",0,2,"b",2,"a",0,1864,0,"2a0"
23,"easy","control",7,"learning_control_trial_seq",0,"a",2,2,"a",0,"a",2,2327,0,"0a2"
23,"easy","control",8,"learning_control_trial_seq",2,"a",3,0,"a",2,"a",3,521,0,"2a3"
23,"easy","control",9,"learning_control_trial_seq",3,"a",1,2,"a",3,"a",1,175,1,"3a1"
23,"easy","control",10,"learning_control_trial_seq",1,"a",0,3,"a",1,"a",0,1706,0,"1a0"
23,"easy","control",11,"learning_control_trial_seq",0,"b",2,1,"a",0,"b",2,1493,0,"0b2"
23,"easy","control",12,"control_further_screen",2,"b",2,0,"b",2,"b",2,401,0,"2b2"
23,"easy","control",13,"learning_control_trial_seq",3,"a",0,2,"a",3,"a",0,3508,0,"3a0"
23,"easy","control",14,"learning_control_trial_seq",0,"a",2,3,"a",0,"a",2,785,0,"0a2"
23,"easy","control",15,"learning_control_trial_seq",2,"a",3,0,"a",2,"a",3,709,0,"2a3"
23,"easy","control",16,"learning_control_trial_seq",3,"a",1,2,"a",3,"a",1,791,0,"3a1"
23,"easy","control",17,"learning_control_trial_seq",1,"b",0,3,"a",1,"b",0,2545,0,"1b0"
23,"easy","control",18,"control_further_screen",0,"b",2,1,"b",0,"b",2,462,0,"0b2"
23,"easy","control",19,"learning_control_trial_seq",2,"a",0,2,"b",2,"a",0,1924,0,"2a0"
23,"easy","control",20,"learning_control_trial_seq",0,"a",2,2,"a",0,"a",2,459,0,"0a2"
23,"easy","control",21,"learning_control_trial_seq",2,"a",0,0,"a",2,"a",0,2996,0,"2a0"
23,"easy","control",22,"control_further_screen",0,"a",2,2,"a",0,"a",2,432,0,"0a2"
23,"easy","control",23,"learning_control_trial_seq",3,"b",3,2,"a",3,"b",3,2049,0,"3b3"
23,"easy","control",24,"learning_control_trial_seq",3,"b",3,3,"b",3,"b",3,903,0,"3b3"
23,"easy","control",25,"learning_control_trial_seq",3,"b",3,3,"b",3,"b",3,906,0,"3b3"
23,"easy","control",26,"learning_control_trial_seq",3,"a",1,3,"b",3,"a",1,685,0,"3a1"
23,"easy","control",27,"learning_control_trial_seq",1,"a",0,3,"a",1,"a",0,633,0,"1a0"
23,"easy","control",28,"control_further_screen",0,"a",2,1,"a",0,"a",2,798,0,"0a2"
23,"easy","control",29,"learning_control_trial_seq",0,"b",2,2,"a",0,"b",2,4275,0,"0b2"
23,"easy","control",30,"learning_control_trial_seq",2,"b",2,0,"b",2,"b",2,279,1,"2b2"
23,"easy","control",31,"learning_control_trial_seq",2,"b",2,2,"b",2,"b",2,599,0,"2b2"
23,"easy","control",32,"learning_control_trial_seq",2,"a",0,2,"b",2,"a",0,978,0,"2a0"
23,"easy","control",33,"control_further_screen",0,"a",2,2,"a",0,"a",2,973,0,"0a2"
23,"easy","control",34,"learning_control_trial_seq",2,"b",2,2,"b",2,"b",2,3203,0,"2b2"
23,"easy","control",35,"learning_control_trial_seq",2,"b",2,2,"b",2,"b",2,364,0,"2b2"
23,"easy","control",36,"learning_control_trial_seq",2,"b",2,2,"b",2,"b",2,301,0,"2b2"
23,"easy","control",37,"learning_control_trial_seq",2,"b",2,2,"b",2,"b",2,92.3,1,"2b2"
23,"easy","control",38,"learning_control_trial_seq",2,"a",3,2,"b",2,"a",3,281,1,"2a3"
23,"easy","control",39,"learning_control_trial_seq",3,"a",0,2,"a",3,"a",0,137,1,"3a0"
23,"easy","control",40,"learning_control_trial_seq",0,"a",2,3,"a",0,"a",2,755,0,"0a2"
23,"easy","control",41,"learning_control_trial_seq",2,"a",0,0,"a",2,"a",0,201,1,"2a0"
23,"easy","control",42,"learning_control_trial_seq",0,"a",2,2,"a",0,"a",2,755,0,"0a2"
23,"easy","control",43,"learning_control_trial_seq",2,"a",0,0,"a",2,"a",0,3697,0,"2a0"
23,"easy","control",44,"learning_control_trial_seq",0,"a",2,2,"a",0,"a",2,194,1,"0a2"
23,"easy","control",45,"learning_control_trial_seq",2,"b",2,0,"a",2,"b",2,252,1,"2b2"
24,"hard","prediction",2,"trial_1_seq",3,"b",2,NA,NA,3,"b",2,3697,0,"3b2"
24,"hard","prediction",3,"trial_2_seq",2,"b",1,3,"b",2,"b",1,3597,0,"2b1"
24,"hard","prediction",4,"learning_control_trial_seq",1,"b",1,2,"b",1,"b",1,2093,0,"1b1"
24,"hard","prediction",5,"learning_control_trial_seq",1,"a",0,1,"b",1,"a",0,2896,0,"1a0"
24,"hard","prediction",6,"learning_control_trial_seq",0,"a",3,1,"a",0,"a",3,2008,0,"0a3"
24,"hard","prediction",7,"learning_control_trial_seq",3,"a",2,0,"a",3,"a",2,1979,0,"3a2"
24,"hard","prediction",8,"learning_control_trial_seq",2,"b",0,3,"a",2,"b",0,2228,0,"2b0"
24,"hard","prediction",9,"learning_control_trial_seq",0,"a",3,2,"b",0,"a",3,2090,0,"0a3"
24,"hard","prediction",10,"learning_control_trial_seq",3,"b",2,0,"a",3,"b",2,2105,0,"3b2"
24,"hard","prediction",11,"learning_control_trial_seq",2,"b",1,3,"b",2,"b",1,5297,0,"2b1"
24,"hard","prediction",12,"learning_control_trial_seq",1,"b",1,2,"b",1,"b",1,2602,0,"1b1"
24,"hard","prediction",13,"learning_control_trial_seq",1,"b",1,1,"b",1,"b",1,3978,0,"1b1"
24,"hard","prediction",14,"learning_control_trial_seq",1,"b",3,1,"b",1,"b",3,2736,0,"1b3"
24,"hard","prediction",15,"learning_control_trial_seq",3,"b",3,1,"b",3,"b",3,1597,0,"3b3"
24,"hard","prediction",16,"learning_control_trial_seq",3,"b",3,3,"b",3,"b",3,1210,0,"3b3"
24,"hard","prediction",17,"learning_control_trial_seq",3,"b",2,3,"b",3,"b",2,1210,0,"3b2"
24,"hard","prediction",18,"learning_control_trial_seq",2,"a",2,3,"b",2,"a",2,2709,0,"2a2"
24,"hard","prediction",19,"learning_control_trial_seq",2,"a",2,2,"a",2,"a",2,3940,0,"2a2"
24,"hard","prediction",20,"learning_control_trial_seq",2,"a",2,2,"a",2,"a",2,1603,0,"2a2"
24,"hard","prediction",21,"learning_control_trial_seq",2,"a",2,2,"a",2,"a",2,3252,0,"2a2"
24,"hard","prediction",22,"learning_control_trial_seq",2,"a",2,2,"a",2,"a",2,1736,0,"2a2"
24,"hard","prediction",23,"learning_control_trial_seq",2,"b",1,2,"a",2,"b",1,2205,0,"2b1"
24,"hard","prediction",24,"learning_control_trial_seq",1,"b",3,2,"b",1,"b",3,2725,0,"1b3"
24,"hard","prediction",25,"learning_control_trial_seq",3,"b",2,1,"b",3,"b",2,2126,0,"3b2"
24,"hard","prediction",26,"learning_control_trial_seq",2,"a",2,3,"b",2,"a",2,2311,0,"2a2"
24,"hard","prediction",27,"learning_control_trial_seq",2,"b",0,2,"a",2,"b",0,2178,0,"2b0"
24,"hard","prediction",28,"learning_control_trial_seq",0,"a",3,2,"b",0,"a",3,2102,0,"0a3"
24,"hard","prediction",29,"learning_control_trial_seq",3,"a",2,0,"a",3,"a",2,1511,0,"3a2"
24,"hard","prediction",30,"learning_control_trial_seq",2,"a",2,3,"a",2,"a",2,3060,0,"2a2"
24,"hard","prediction",31,"learning_control_trial_seq",2,"a",2,2,"a",2,"a",2,1280,0,"2a2"
24,"hard","prediction",32,"learning_control_trial_seq",2,"a",2,2,"a",2,"a",2,773,0,"2a2"
24,"hard","prediction",33,"learning_control_trial_seq",2,"b",1,2,"a",2,"b",1,1743,0,"2b1"
24,"hard","prediction",34,"learning_control_trial_seq",1,"b",3,2,"b",1,"b",3,1295,0,"1b3"
24,"hard","prediction",35,"learning_control_trial_seq",3,"b",2,1,"b",3,"b",2,2147,0,"3b2"
24,"hard","prediction",36,"learning_control_trial_seq",2,"b",0,3,"b",2,"b",0,1657,0,"2b0"
24,"hard","prediction",37,"learning_control_trial_seq",0,"b",3,2,"b",0,"b",3,1453,0,"0b3"
24,"hard","prediction",38,"learning_control_trial_seq",3,"b",3,0,"b",3,"b",3,2979,0,"3b3"
24,"hard","prediction",39,"learning_control_trial_seq",3,"b",3,3,"b",3,"b",3,1909,0,"3b3"
24,"hard","prediction",40,"learning_control_trial_seq",3,"b",2,3,"b",3,"b",2,1125,0,"3b2"
24,"hard","prediction",41,"learning_control_trial_seq",2,"b",1,3,"b",2,"b",1,2054,0,"2b1"
24,"hard","prediction",42,"learning_control_trial_seq",1,"b",1,2,"b",1,"b",1,2489,0,"1b1"
24,"hard","prediction",43,"learning_control_trial_seq",1,"a",1,1,"b",1,"a",1,2414,0,"1a1"
24,"hard","prediction",44,"learning_control_trial_seq",1,"a",1,1,"a",1,"a",1,2334,0,"1a1"
24,"hard","prediction",45,"learning_control_trial_seq",1,"a",1,1,"a",1,"a",1,1295,0,"1a1"
